# Receiver Set: route rx 1pv                                                     
# Transmitter Set: tx                                                               
# Format: Path Number  Phase (Deg.)  Time (s)  Power (dBm)
     38
     1    106
    1   158.728   0.25126875E-07   -69.522
    2    76.209   0.25608090E-07   -71.321
    3    84.320   0.25617890E-07   -71.422
    4    36.362   0.25639487E-07   -71.454
    5    95.940   0.25610268E-07   -72.911
    6    58.310   0.25637032E-07   -72.915
    7   -43.598   0.11323095E-07   -74.244
    8    38.511   0.11261355E-07   -74.313
    9    25.727   0.59607572E-07   -77.194
   10   -52.546   0.59811306E-07   -77.912
   11   -65.965   0.59821886E-07   -77.950
   12  -110.566   0.27039656E-07   -78.828
   13   173.360   0.27079551E-07   -79.028
   14  -164.556   0.27072558E-07   -79.102
   15    22.446   0.41260211E-07   -80.161
   16    84.367   0.41211369E-07   -80.577
   17    51.827   0.60449068E-07   -81.933
   18  -120.825   0.14277402E-07   -81.973
   19    46.046   0.60453729E-07   -82.024
   20   -17.515   0.14215944E-07   -82.295
   21  -165.045   0.27374956E-07   -82.391
   22   -59.283   0.29359821E-07   -83.721
   23   -23.941   0.10130798E-06   -83.903
   24     3.807   0.10142803E-06   -84.350
   25     7.391   0.10142864E-06   -84.872
   26    -1.635   0.10143580E-06   -84.873
   27     1.673   0.29348875E-07   -85.518
   28   -14.433   0.61499051E-07   -85.783
   29   -40.736   0.61515756E-07   -86.156
   30   108.264   0.29256778E-07   -86.323
   31    10.496   0.29327408E-07   -86.324
   32    76.147   0.10180358E-06   -86.787
   33    71.474   0.10180740E-06   -86.901
   34   -98.216   0.85858403E-07   -87.752
   35   172.601   0.29236494E-07   -88.078
   36  -130.731   0.86030042E-07   -88.108
   37    89.720   0.29302385E-07   -88.186
   38  -110.682   0.86010161E-07   -88.300
   39  -105.734   0.86006231E-07   -88.300
   40  -105.514   0.86014623E-07   -88.823
   41  -100.659   0.86006523E-07   -88.970
   42  -174.948   0.18068691E-07   -89.109
   43    53.409   0.18170361E-07   -89.126
   44  -178.002   0.10243270E-06   -89.380
   45  -175.413   0.10243067E-06   -89.516
   46  -145.944   0.30552254E-07   -89.543
   47   161.947   0.85884686E-07   -89.650
   48   -59.979   0.41623736E-07   -89.685
   49   -46.403   0.41613138E-07   -89.725
   50    71.503   0.22620814E-07   -89.818
   51  -104.726   0.18055429E-07   -90.219
   52   126.441   0.18154937E-07   -90.268
   53    39.202   0.22632264E-07   -90.550
   54   147.329   0.86030212E-07   -90.581
   55   141.629   0.86034674E-07   -90.617
   56   173.428   0.10244850E-06   -90.760
   57  -162.707   0.86002629E-07   -90.781
   58    79.181   0.30296746E-07   -90.970
   59     2.138   0.30718383E-07   -91.075
   60    25.816   0.30697368E-07   -91.106
   61    30.898   0.22637524E-07   -91.121
   62    -5.346   0.30724223E-07   -91.143
   63  -161.189   0.60363817E-07   -91.287
   64   111.744   0.31387291E-07   -91.287
   65    65.350   0.22636867E-07   -91.499
   66  -144.309   0.60359589E-07   -91.510
   67  -141.636   0.60366020E-07   -91.746
   68  -158.331   0.60366780E-07   -91.825
   69   172.792   0.20096801E-07   -91.866
   70   -82.421   0.13946819E-07   -91.974
   71  -169.062   0.86437197E-07   -92.932
   72   171.276   0.86453021E-07   -93.156
   73   146.612   0.86472689E-07   -93.268
   74    39.199   0.12771206E-06   -93.373
   75    64.652   0.12784557E-06   -93.569
   76    57.464   0.86549072E-07   -93.678
   77    96.657   0.12780866E-06   -93.736
   78   -29.633   0.13922710E-07   -93.890
   79    97.651   0.12781534E-06   -93.930
   80  -134.594   0.32136274E-07   -94.112
   81   112.372   0.33363051E-07   -95.195
   82   134.167   0.19719236E-07   -95.756
   83    -9.647   0.26884923E-07   -95.759
   84   -95.281   0.32124017E-07   -96.338
   85  -139.935   0.32166419E-07   -96.358
   86   -35.665   0.26901489E-07   -96.557
   87  -103.351   0.31556812E-07   -96.584
   88  -102.922   0.31556429E-07   -96.641
   89   -33.128   0.26896062E-07   -96.852
   90    -5.651   0.31967392E-07   -97.023
   91   -15.009   0.26898984E-07   -97.221
   92   171.258   0.31903443E-07   -97.648
   93   150.697   0.31922010E-07   -97.697
   94  -172.817   0.22441684E-07   -98.211
   95  -150.856   0.22424143E-07   -98.222
   96   -29.593   0.13946712E-07   -98.261
   97   107.038   0.31917573E-07   -98.296
   98   177.753   0.31559850E-07   -98.446
   99    71.865   0.31938118E-07   -98.579
  100   102.507   0.31914276E-07   -98.669
  101   135.305   0.31585593E-07   -99.074
  102    39.621   0.31954666E-07   -99.115
  103   -57.919   0.26897233E-07   -99.245
  104    31.837   0.31955636E-07   -99.513
  105   157.670   0.31944737E-07   -99.617
  106  -169.592   0.31908726E-07   -99.817
     2     96
    1    40.304   0.12638805E-07   -66.245
    2   -32.211   0.12695891E-07   -66.461
    3   150.215   0.28239601E-07   -70.175
    4   132.951   0.28668898E-07   -71.718
    5    97.220   0.28697018E-07   -71.854
    6   151.354   0.28671366E-07   -73.279
    7   131.068   0.28694625E-07   -73.305
    8    21.744   0.30007616E-07   -76.476
    9   -17.427   0.15330048E-07   -77.011
   10  -124.990   0.15392695E-07   -77.291
   11   128.534   0.29965161E-07   -79.013
   12    87.184   0.29984008E-07   -79.147
   13   125.014   0.30246479E-07   -79.656
   14    -1.894   0.38144428E-07   -80.180
   15   -52.101   0.15057916E-07   -81.588
   16  -113.535   0.15081303E-07   -82.520
   17   -58.940   0.15080925E-07   -83.977
   18  -142.069   0.98115230E-07   -84.070
   19  -134.695   0.20898897E-07   -84.397
   20   154.697   0.20536945E-07   -85.020
   21  -167.716   0.32026517E-07   -85.833
   22   170.879   0.32054331E-07   -85.856
   23  -108.035   0.31972103E-07   -85.906
   24  -171.982   0.32026392E-07   -85.923
   25   159.539   0.32041818E-07   -85.985
   26    -9.007   0.19060705E-07   -86.251
   27   119.015   0.18962032E-07   -86.268
   28   -94.633   0.98510661E-07   -86.634
   29   -90.406   0.98507307E-07   -86.635
   30   145.293   0.27012749E-07   -86.946
   31    73.127   0.19039742E-07   -87.264
   32  -157.110   0.18936815E-07   -87.272
   33   -34.874   0.31950709E-07   -87.880
   34  -112.957   0.32012654E-07   -87.890
   35   -88.364   0.21134776E-07   -88.720
   36   -19.369   0.99163962E-07   -89.278
   37   -22.023   0.89173554E-07   -89.951
   38   -48.725   0.89194742E-07   -89.953
   39  -111.068   0.32924447E-07   -90.035
   40   135.742   0.33153974E-07   -90.177
   41   -32.355   0.89323642E-07   -90.498
   42   -28.491   0.89320579E-07   -90.498
   43   131.615   0.24737728E-07   -90.780
   44   -36.424   0.89318910E-07   -90.860
   45   -35.059   0.57120854E-07   -90.881
   46   -45.287   0.89325880E-07   -90.897
   47   -17.230   0.89315520E-07   -91.001
   48   -18.380   0.89316870E-07   -91.167
   49   -10.374   0.57114796E-07   -91.202
   50   -17.929   0.24433861E-07   -91.264
   51    -1.473   0.57111922E-07   -91.306
   52   -20.217   0.57122108E-07   -91.454
   53   -94.195   0.21153268E-07   -91.548
   54   -69.834   0.33312649E-07   -91.735
   55   -52.196   0.33298608E-07   -91.760
   56   -31.955   0.89744880E-07   -92.117
   57     3.418   0.57117646E-07   -92.412
   58   -30.311   0.89751012E-07   -93.003
   59    -5.555   0.89731564E-07   -93.213
   60   168.372   0.13103812E-06   -93.585
   61     9.161   0.22863293E-07   -93.752
   62  -152.779   0.24954074E-07   -93.894
   63  -134.597   0.13113505E-06   -93.948
   64  -127.819   0.89834913E-07   -94.055
   65  -141.576   0.13114806E-06   -94.150
   66  -130.662   0.13113480E-06   -94.370
   67   -28.265   0.34631348E-07   -95.325
   68   164.730   0.31048916E-07   -95.465
   69   -65.346   0.17660943E-07   -95.573
   70   -31.956   0.34634606E-07   -95.625
   71    71.228   0.22838950E-07   -95.703
   72  -106.129   0.24934277E-07   -95.759
   73   -15.528   0.34617994E-07   -95.789
   74   -14.282   0.34613372E-07   -95.811
   75   141.321   0.34407407E-07   -96.243
   76   -33.950   0.17625924E-07   -96.259
   77   -49.765   0.26417164E-07   -96.280
   78    29.769   0.23131424E-07   -96.352
   79   -10.875   0.23163606E-07   -96.354
   80  -159.599   0.31055940E-07   -96.401
   81   115.758   0.34424591E-07   -96.522
   82    83.573   0.34444533E-07   -97.228
   83    15.430   0.22883295E-07   -97.318
   84   -46.243   0.22348804E-07   -97.356
   85   126.204   0.34115001E-07   -97.420
   86   -57.197   0.22357460E-07   -97.774
   87    43.918   0.22862730E-07   -97.850
   88   142.957   0.34435541E-07   -98.358
   89   167.686   0.34408060E-07   -98.699
   90  -165.186   0.34088483E-07   -98.744
   91  -168.049   0.34088199E-07   -98.845
   92   151.283   0.34416466E-07   -98.994
   93    77.648   0.34465863E-07   -99.435
   94   -80.092   0.26447877E-07   -99.553
   95    99.748   0.34444021E-07   -99.746
   96    94.906   0.22844429E-07   -99.914
     3     97
    1   -72.249   0.14659815E-07   -62.914
    2  -135.487   0.14709642E-07   -63.133
    3   -73.611   0.18140733E-07   -64.797
    4    95.412   0.31398084E-07   -70.925
    5   137.237   0.31787387E-07   -72.496
    6   104.353   0.31809833E-07   -72.523
    7   -60.744   0.17034569E-07   -73.661
    8   150.377   0.31786481E-07   -73.783
    9   125.974   0.31806184E-07   -73.928
   10  -159.310   0.17090814E-07   -74.150
   11  -141.722   0.16789439E-07   -77.945
   12  -145.459   0.33017727E-07   -78.388
   13   -69.399   0.32954279E-07   -78.966
   14  -101.194   0.32968757E-07   -79.174
   15   162.153   0.16811581E-07   -79.214
   16    16.997   0.22178856E-07   -79.753
   17  -144.844   0.16809917E-07   -79.982
   18   -88.414   0.21838940E-07   -79.994
   19   -42.649   0.33223458E-07   -81.755
   20   -21.811   0.33213865E-07   -82.059
   21    75.191   0.22403260E-07   -83.078
   22    56.327   0.22419510E-07   -83.164
   23     2.655   0.18954896E-07   -83.329
   24   117.595   0.20368111E-07   -83.504
   25  -103.944   0.21563682E-07   -84.213
   26   -25.852   0.40161176E-07   -84.562
   27  -154.243   0.20341719E-07   -84.573
   28    37.280   0.20460236E-07   -84.903
   29  -142.293   0.34842191E-07   -85.680
   30  -161.314   0.34864453E-07   -85.683
   31   116.631   0.20437964E-07   -86.118
   32   -96.045   0.34833825E-07   -87.542
   33   -18.878   0.34776196E-07   -87.562
   34   -67.860   0.24043310E-07   -88.052
   35  -131.673   0.34866378E-07   -88.105
   36  -176.408   0.36165986E-07   -88.354
   37   -23.809   0.34793320E-07   -88.431
   38    -5.306   0.24016044E-07   -90.238
   39   113.566   0.92490183E-07   -90.338
   40    90.391   0.92508571E-07   -90.339
   41   103.832   0.92644129E-07   -90.801
   42   106.979   0.92641635E-07   -90.802
   43   115.881   0.92630302E-07   -90.848
   44    -4.299   0.38900833E-07   -90.883
   45    84.410   0.53891924E-07   -90.897
   46   120.299   0.92623097E-07   -91.151
   47   147.271   0.19170258E-07   -91.369
   48   129.115   0.92623615E-07   -91.386
   49   119.121   0.92631545E-07   -91.387
   50   -94.349   0.35878582E-07   -91.475
   51   130.365   0.53877212E-07   -91.528
   52   -15.076   0.35670542E-07   -91.553
   53   115.429   0.53884367E-07   -91.587
   54   -73.713   0.24066718E-07   -91.590
   55   -32.949   0.24042150E-07   -91.773
   56  -155.998   0.23553262E-07   -91.802
   57  -178.116   0.19126917E-07   -92.175
   58   119.789   0.53886723E-07   -92.178
   59  -166.434   0.23559782E-07   -92.265
   60    66.743   0.36029125E-07   -93.088
   61   151.055   0.93039965E-07   -93.215
   62    78.698   0.36016715E-07   -93.347
   63   158.773   0.93029719E-07   -93.509
   64   141.348   0.93039894E-07   -93.961
   65   -69.434   0.13436507E-06   -94.028
   66    -9.743   0.13446454E-06   -94.160
   67   -50.742   0.24325081E-07   -94.230
   68    35.717   0.93129465E-07   -94.361
   69    12.990   0.24024095E-07   -94.439
   70    -0.599   0.25299594E-07   -94.796
   71    -4.383   0.13445850E-06   -94.813
   72   -76.702   0.24083654E-07   -94.818
   73   -45.225   0.25338036E-07   -94.833
   74   -73.908   0.37224449E-07   -95.038
   75  -100.176   0.37245307E-07   -95.054
   76    23.071   0.24295389E-07   -95.203
   77  -114.715   0.24362860E-07   -96.048
   78   -40.857   0.25081775E-07   -96.183
   79    75.125   0.27471437E-07   -96.543
   80   -25.019   0.30390815E-07   -96.554
   81   -25.003   0.30390801E-07   -96.568
   82  -142.047   0.30619880E-07   -96.918
   83    92.840   0.27492719E-07   -97.212
   84    22.305   0.37043485E-07   -97.360
   85  -100.123   0.39374157E-07   -97.685
   86    -1.901   0.37059316E-07   -97.737
   87   -99.977   0.55744763E-07   -97.975
   88   -26.157   0.30808785E-07   -98.557
   89   -49.058   0.22028507E-07   -98.564
   90   165.930   0.25209037E-07   -98.888
   91   -50.121   0.30826662E-07   -98.998
   92   -33.001   0.30815539E-07   -99.010
   93    -7.504   0.37087823E-07   -99.266
   94   -98.600   0.26463139E-07   -99.312
   95    32.799   0.37056015E-07   -99.542
   96    45.482   0.37043083E-07   -99.882
   97    50.065   0.36745696E-07   -99.954
     4    101
    1    11.176   0.17097699E-07   -61.723
    2   -43.449   0.17140707E-07   -61.933
    3    79.142   0.18585318E-07   -64.180
    4    49.650   0.19177291E-07   -71.927
    5   -20.450   0.19223958E-07   -72.342
    6    51.628   0.34977365E-07   -72.729
    7   102.617   0.34950745E-07   -73.004
    8    62.895   0.34964234E-07   -73.164
    9   117.880   0.34947689E-07   -74.242
   10    85.011   0.34959729E-07   -74.453
   11     6.998   0.21319945E-07   -74.908
   12    66.350   0.34589885E-07   -75.177
   13  -123.290   0.19613450E-07   -77.089
   14   -65.153   0.18955326E-07   -77.622
   15  -128.504   0.23544935E-07   -77.626
   16     9.376   0.23859423E-07   -77.709
   17   -10.719   0.36042799E-07   -78.809
   18  -112.483   0.18973134E-07   -79.026
   19    19.984   0.36004050E-07   -79.083
   20   -66.478   0.18971534E-07   -79.495
   21    70.832   0.24084384E-07   -80.369
   22    89.094   0.36243893E-07   -81.965
   23   102.444   0.24070625E-07   -82.534
   24  -103.987   0.22260151E-07   -83.100
   25   -65.621   0.22266313E-07   -84.604
   26    82.522   0.25605216E-07   -85.336
   27   -67.335   0.24914026E-07   -85.733
   28   136.151   0.25591609E-07   -87.041
   29   146.988   0.25577496E-07   -87.348
   30   161.197   0.37741749E-07   -87.456
   31   130.255   0.25594010E-07   -87.722
   32   -99.650   0.37696331E-07   -88.432
   33  -165.698   0.37748695E-07   -88.502
   34   -48.372   0.40619096E-07   -88.781
   35   128.871   0.25595124E-07   -88.813
   36   -42.283   0.25142507E-07   -89.258
   37   -50.598   0.25149083E-07   -89.381
   38   -43.307   0.37682675E-07   -90.341
   39  -113.642   0.37734821E-07   -90.505
   40  -169.726   0.21089228E-07   -90.652
   41    63.105   0.39372839E-07   -90.917
   42  -111.946   0.95808254E-07   -90.967
   43  -132.604   0.95824646E-07   -90.968
   44  -144.145   0.50666507E-07   -91.089
   45  -150.147   0.50666568E-07   -91.158
   46   164.029   0.25586361E-07   -91.243
   47   101.383   0.25622620E-07   -91.341
   48   -94.229   0.95936215E-07   -91.441
   49  -106.761   0.95946092E-07   -91.477
   50  -147.332   0.21053998E-07   -91.674
   51   -88.203   0.95938944E-07   -91.680
   52   -97.091   0.95942234E-07   -92.015
   53   140.858   0.25870415E-07   -92.345
   54    -0.118   0.39996024E-07   -92.420
   55   159.605   0.31653308E-07   -92.471
   56  -160.700   0.26575162E-07   -92.886
   57    68.835   0.25900096E-07   -93.105
   58    58.613   0.25906246E-07   -93.285
   59   173.543   0.31638901E-07   -93.328
   60   -90.583   0.38703860E-07   -93.389
   61   -51.089   0.96335043E-07   -93.807
   62   -33.438   0.38509956E-07   -93.850
   63    64.690   0.31861543E-07   -93.953
   64   -42.761   0.96328655E-07   -94.027
   65    59.467   0.13769133E-06   -94.233
   66   112.889   0.13779578E-06   -94.369
   67   169.875   0.32063962E-07   -94.543
   68  -165.821   0.96427911E-07   -94.578
   69   166.397   0.32067881E-07   -94.590
   70  -154.598   0.96423364E-07   -94.659
   71    39.830   0.39972768E-07   -94.847
   72   127.250   0.13778261E-06   -95.017
   73    81.633   0.38842131E-07   -95.259
   74    96.736   0.38830066E-07   -95.301
   75  -169.560   0.32043076E-07   -95.330
   76   171.372   0.32058097E-07   -95.370
   77    90.345   0.28988685E-07   -95.800
   78   164.007   0.28847175E-07   -96.032
   79  -124.453   0.27888255E-07   -96.037
   80  -152.842   0.32045097E-07   -96.049
   81  -152.097   0.32043836E-07   -96.106
   82    10.669   0.96999230E-07   -96.471
   83    87.922   0.32830137E-07   -96.510
   84    42.393   0.26701759E-07   -96.573
   85   178.139   0.28871291E-07   -96.908
   86  -113.033   0.41941266E-07   -97.249
   87   -65.248   0.23724896E-07   -97.260
   88  -130.104   0.32022275E-07   -97.272
   89   177.014   0.32064658E-07   -97.324
   90  -174.541   0.52660887E-07   -97.868
   91    51.504   0.27474364E-07   -98.170
   92   -48.752   0.27556080E-07   -98.177
   93   114.104   0.32821564E-07   -98.683
   94    51.438   0.27970982E-07   -98.859
   95    98.802   0.30109170E-07   -99.279
   96   111.719   0.39802405E-07   -99.302
   97   129.218   0.39785917E-07   -99.347
   98   112.439   0.39798834E-07   -99.501
   99    95.866   0.27927726E-07   -99.558
  100    66.838   0.32836088E-07   -99.564
  101  -125.124   0.35893567E-07   -99.581
     5    107
    1   136.259   0.19799186E-07   -61.492
    2    85.702   0.19836094E-07   -61.594
    3   170.531   0.21616691E-07   -70.799
    4    94.751   0.21661204E-07   -71.249
    5   -12.132   0.38148837E-07   -73.626
    6   -23.346   0.38149885E-07   -73.773
    7    24.135   0.38828400E-07   -74.671
    8     7.538   0.38145362E-07   -75.104
    9    25.909   0.22020668E-07   -75.275
   10   -49.714   0.37806423E-07   -76.082
   11   -45.642   0.25864086E-07   -76.829
   12   140.914   0.25574199E-07   -76.829
   13    27.223   0.26084635E-07   -78.742
   14    -2.521   0.21423700E-07   -78.905
   15    38.024   0.26071676E-07   -79.154
   16    -8.572   0.21423226E-07   -79.202
   17    34.819   0.39109082E-07   -79.588
   18    90.342   0.24333390E-07   -80.016
   19    -6.278   0.21438403E-07   -80.695
   20   -60.594   0.21441766E-07   -81.041
   21   173.725   0.24309761E-07   -81.435
   22    21.466   0.24411047E-07   -81.975
   23   -28.091   0.26118100E-07   -82.814
   24  -126.430   0.27456426E-07   -83.499
   25  -152.626   0.27479002E-07   -83.517
   26   100.728   0.24390548E-07   -83.556
   27    34.482   0.40672671E-07   -85.484
   28  -178.202   0.27509399E-07   -86.668
   29  -168.000   0.27500732E-07   -86.941
   30    -2.958   0.27090985E-07   -87.012
   31  -131.745   0.27482894E-07   -87.143
   32  -115.578   0.27467976E-07   -87.276
   33   160.735   0.27519095E-07   -87.605
   34    26.411   0.27052710E-07   -87.921
   35    32.542   0.40715978E-07   -88.315
   36    86.686   0.40684174E-07   -88.524
   37    79.578   0.42246377E-07   -90.824
   38    82.177   0.40703057E-07   -90.844
   39   -62.014   0.27727431E-07   -90.870
   40    23.506   0.99129323E-07   -91.253
   41  -134.823   0.33426179E-07   -91.438
   42     2.959   0.33176747E-07   -91.476
   43     2.966   0.33176743E-07   -91.480
   44  -159.991   0.27760722E-07   -91.661
   45    44.177   0.99254940E-07   -91.726
   46    30.490   0.99265733E-07   -91.762
   47   178.426   0.23337622E-07   -91.888
   48   -92.784   0.33389384E-07   -92.078
   49  -176.760   0.23329390E-07   -92.121
   50    48.791   0.99254791E-07   -92.213
   51    40.011   0.99261761E-07   -92.214
   52  -171.455   0.33452007E-07   -92.312
   53     5.851   0.27701304E-07   -92.331
   54    47.612   0.33560344E-07   -93.278
   55    -5.006   0.31299031E-07   -93.319
   56   113.917   0.42225665E-07   -93.585
   57    21.912   0.33579237E-07   -93.609
   58   -40.610   0.33630862E-07   -93.883
   59   112.384   0.99633873E-07   -94.090
   60   -16.861   0.33610167E-07   -94.272
   61   108.745   0.99636985E-07   -94.310
   62    30.879   0.33570618E-07   -94.326
   63   174.298   0.29622640E-07   -94.352
   64    75.766   0.33551462E-07   -94.354
   65  -174.586   0.14101994E-06   -94.436
   66   -62.873   0.33649496E-07   -94.808
   67    82.946   0.33543099E-07   -94.834
   68    -5.329   0.34306986E-07   -94.842
   69     3.401   0.99722179E-07   -94.866
   70    83.151   0.33542705E-07   -94.872
   71   173.653   0.30538772E-07   -94.970
   72    11.478   0.34290093E-07   -95.098
   73    -3.938   0.31305532E-07   -95.166
   74  -104.750   0.14110960E-06   -95.220
   75    25.636   0.33586222E-07   -95.537
   76  -124.728   0.39001975E-07   -95.835
   77  -154.373   0.30548403E-07   -95.963
   78  -109.427   0.38998955E-07   -96.392
   79   -89.408   0.34650604E-07   -96.393
   80   175.644   0.41603627E-07   -96.456
   81   -38.883   0.29232606E-07   -96.482
   82  -120.363   0.29297267E-07   -96.521
   83  -124.966   0.34676443E-07   -96.634
   84   104.564   0.14103192E-06   -96.696
   85  -140.468   0.41422915E-07   -96.731
   86  -153.749   0.10027257E-06   -96.749
   87   117.773   0.42804668E-07   -96.839
   88  -162.246   0.34703959E-07   -96.906
   89   135.188   0.42790834E-07   -97.015
   90  -174.891   0.14111029E-06   -97.020
   91  -170.919   0.14110714E-06   -97.020
   92   165.988   0.25872879E-07   -97.353
   93  -168.544   0.14110780E-06   -97.390
   94  -162.650   0.31722486E-07   -97.449
   95  -120.027   0.25737467E-07   -97.487
   96  -120.244   0.78677232E-07   -97.507
   97  -107.754   0.33686653E-07   -97.553
   98  -103.804   0.39005531E-07   -98.230
   99    15.475   0.41722277E-07   -98.377
  100   -83.189   0.33682635E-07   -98.479
  101  -153.663   0.34719545E-07   -98.516
  102   144.137   0.29689227E-07   -99.163
  103  -105.406   0.26079766E-07   -99.225
  104    56.980   0.39009350E-07   -99.429
  105  -127.710   0.26089266E-07   -99.585
  106    13.112   0.41732228E-07   -99.669
  107    -6.207   0.34860570E-07   -99.850
     6     87
    1   -71.821   0.24632852E-07   -74.271
    2  -115.787   0.41358781E-07   -74.512
    3    19.109   0.41971525E-07   -75.141
    4   -69.508   0.28124827E-07   -77.185
    5   -56.654   0.28112309E-07   -77.314
    6    41.148   0.28322701E-07   -78.700
    7   -75.121   0.26724701E-07   -78.976
    8    33.691   0.42241176E-07   -79.667
    9    27.387   0.42257657E-07   -79.869
   10   -25.877   0.42273143E-07   -79.876
   11    30.432   0.28313462E-07   -79.910
   12    -5.744   0.42261082E-07   -79.998
   13    18.899   0.27742429E-07   -80.345
   14    28.983   0.28324587E-07   -80.525
   15    13.163   0.27741775E-07   -80.940
   16    75.152   0.28300462E-07   -80.982
   17  -125.590   0.26789863E-07   -81.158
   18  -137.572   0.26806255E-07   -81.179
   19   137.946   0.42454388E-07   -81.877
   20   126.524   0.42456101E-07   -81.878
   21     9.242   0.28332243E-07   -82.650
   22    16.958   0.29593510E-07   -83.168
   23   -16.895   0.29617633E-07   -83.514
   24   106.501   0.43739519E-07   -85.589
   25    27.817   0.29604607E-07   -86.766
   26   -53.247   0.29651671E-07   -87.223
   27   153.291   0.43727887E-07   -87.461
   28   -12.796   0.29876301E-07   -88.685
   29   -17.625   0.29645083E-07   -89.126
   30  -175.155   0.31026076E-07   -89.351
   31    32.255   0.29615977E-07   -89.380
   32   107.215   0.29859507E-07   -89.856
   33  -126.746   0.34966078E-07   -90.654
   34   154.811   0.35165822E-07   -91.148
   35   -75.954   0.35355150E-07   -91.339
   36  -102.187   0.35375951E-07   -91.370
   37  -169.331   0.29820434E-07   -91.418
   38   177.861   0.10257741E-06   -92.006
   39  -113.364   0.30463340E-07   -92.412
   40   -36.401   0.35314180E-07   -92.573
   41   -61.787   0.35332700E-07   -92.684
   42   -80.925   0.35347828E-07   -92.701
   43   105.378   0.31658480E-07   -92.940
   44   -76.076   0.35342325E-07   -93.269
   45   111.780   0.30568984E-07   -93.587
   46   -62.684   0.36041818E-07   -93.640
   47   -45.146   0.36025718E-07   -93.712
   48    22.011   0.45143906E-07   -93.802
   49  -102.893   0.35360355E-07   -93.907
   50  -157.068   0.42146166E-07   -93.922
   51  -105.799   0.32462133E-07   -94.174
   52   149.989   0.10302399E-06   -94.204
   53   -96.089   0.10294219E-06   -94.368
   54  -141.033   0.42142222E-07   -94.468
   55    59.937   0.31097670E-07   -94.701
   56  -124.015   0.36368110E-07   -95.288
   57   -84.587   0.32476454E-07   -95.522
   58    39.967   0.31104250E-07   -95.712
   59    98.386   0.31675555E-07   -95.850
   60  -156.535   0.36389807E-07   -95.864
   61  -135.398   0.42148358E-07   -95.963
   62   -12.858   0.31647168E-07   -96.252
   63   161.744   0.35446341E-07   -96.344
   64    78.276   0.47477229E-07   -96.728
   65    -3.262   0.33568782E-07   -96.754
   66   108.087   0.45654197E-07   -97.087
   67    87.718   0.45670372E-07   -97.102
   68   -44.491   0.14443536E-06   -97.217
   69   -41.045   0.14443263E-06   -97.217
   70   174.800   0.36434418E-07   -97.240
   71   -97.780   0.40540893E-07   -97.313
   72    96.059   0.31653929E-07   -97.573
   73   -93.760   0.31700658E-07   -97.647
   74    27.563   0.81984702E-07   -98.124
   75    12.660   0.10357802E-06   -98.254
   76    27.430   0.10356653E-06   -98.425
   77    51.210   0.10354768E-06   -98.437
   78   -28.347   0.36568707E-07   -98.656
   79  -179.448   0.40589896E-07   -98.671
   80   127.619   0.47472369E-07   -98.845
   81   161.342   0.35454001E-07   -98.862
   82     2.374   0.31652753E-07   -98.868
   83  -105.356   0.36364899E-07   -99.093
   84   -42.312   0.36576370E-07   -99.177
   85    10.799   0.44569955E-07   -99.347
   86   108.923   0.33376889E-07   -99.613
   87    39.319   0.44400782E-07   -99.874
     7    109
    1  -134.703   0.25663454E-07   -62.252
    2  -166.346   0.25688507E-07   -62.297
    3    27.613   0.27103686E-07   -69.796
    4    -1.559   0.27402027E-07   -73.676
    5   123.952   0.44582261E-07   -75.088
    6   115.256   0.44585171E-07   -75.178
    7   132.044   0.44590397E-07   -75.880
    8   141.691   0.44591385E-07   -76.376
    9    11.713   0.30602415E-07   -77.583
   10    14.975   0.44292484E-07   -77.731
   11    32.617   0.30578914E-07   -77.899
   12   -70.969   0.29317148E-07   -79.718
   13   172.387   0.30744225E-07   -79.898
   14  -142.621   0.29374188E-07   -80.039
   15    -8.739   0.45406065E-07   -80.105
   16   -35.656   0.45419952E-07   -80.395
   17   -38.509   0.45429946E-07   -80.474
   18    97.735   0.30788648E-07   -81.022
   19   101.514   0.30791632E-07   -82.130
   20   123.943   0.45597218E-07   -82.317
   21  -117.450   0.29374808E-07   -82.560
   22  -115.601   0.31959836E-07   -83.719
   23  -101.828   0.31937411E-07   -83.736
   24    92.570   0.30799729E-07   -83.760
   25  -165.546   0.31979589E-07   -84.609
   26  -172.018   0.46802434E-07   -85.662
   27   -44.052   0.32237413E-07   -86.343
   28  -110.082   0.31957942E-07   -86.410
   29  -111.247   0.31959026E-07   -87.465
   30  -172.340   0.31996144E-07   -87.558
   31  -123.604   0.46788845E-07   -87.661
   32   -18.613   0.31589764E-07   -87.986
   33   -25.139   0.31594894E-07   -88.008
   34   -94.936   0.32197907E-07   -88.646
   35     5.762   0.32219816E-07   -88.836
   36   -71.565   0.31948069E-07   -88.883
   37  -103.466   0.31971421E-07   -89.629
   38  -164.781   0.32979145E-07   -89.669
   39   -64.087   0.24547515E-06   -89.684
   40    90.868   0.32178495E-07   -90.555
   41  -168.088   0.36970420E-07   -90.570
   42   176.205   0.83151470E-07   -91.079
   43    96.396   0.24620175E-06   -91.388
   44   114.552   0.37166931E-07   -91.540
   45    91.147   0.24578387E-06   -91.567
   46   -60.212   0.37311175E-07   -91.614
   47   156.734   0.83308748E-07   -91.666
   48     9.914   0.10557346E-06   -92.052
   49   -53.930   0.37300769E-07   -92.292
   50   -73.875   0.37316589E-07   -92.348
   51   170.202   0.83302766E-07   -92.450
   52   104.044   0.33029636E-07   -92.797
   53   -89.963   0.37325648E-07   -92.934
   54   -70.574   0.37310322E-07   -92.950
   55   -91.186   0.37326636E-07   -93.004
   56  -143.375   0.32741610E-07   -93.086
   57    14.188   0.34646636E-07   -93.249
   58   -25.401   0.37985913E-07   -93.360
   59    45.222   0.33950659E-07   -93.462
   60  -148.249   0.33819045E-07   -93.668
   61   142.064   0.33874350E-07   -93.682
   62   -35.700   0.34682319E-07   -93.698
   63   -14.500   0.37973152E-07   -93.773
   64  -166.176   0.48134247E-07   -94.016
   65   170.875   0.45315083E-07   -94.184
   66   138.318   0.83757016E-07   -94.456
   67   137.039   0.83758131E-07   -94.575
   68    22.511   0.27413657E-07   -94.621
   69   135.510   0.83759438E-07   -94.670
   70    81.679   0.32843207E-07   -94.747
   71   156.294   0.33605382E-07   -95.100
   72    54.651   0.34637925E-07   -95.107
   73   -69.518   0.38298065E-07   -95.180
   74  -170.592   0.42280607E-07   -95.350
   75    95.390   0.37455102E-07   -95.438
   76   128.832   0.83771901E-07   -95.595
   77   -65.735   0.33482298E-07   -95.743
   78  -106.957   0.38323240E-07   -95.882
   79   152.104   0.83754102E-07   -95.906
   80   -30.402   0.24572645E-06   -96.217
   81  -179.211   0.35690093E-07   -96.247
   82    -3.388   0.24584736E-06   -96.507
   83   123.800   0.37444703E-07   -96.787
   84    53.982   0.33848941E-07   -97.105
   85    56.317   0.32165961E-07   -97.147
   86   -15.155   0.48597514E-07   -97.147
   87   -48.945   0.48624372E-07   -97.367
   88    83.250   0.14776256E-06   -97.411
   89    86.275   0.14776016E-06   -97.411
   90    75.161   0.84516010E-07   -97.533
   91    57.532   0.24636765E-06   -98.132
   92    43.191   0.38487279E-07   -98.239
   93   174.440   0.85296705E-07   -98.457
   94  -113.858   0.38341767E-07   -98.529
   95   175.521   0.10266265E-06   -98.878
   96   -29.684   0.33901411E-07   -98.916
   97  -140.114   0.67332493E-07   -99.048
   98   -93.091   0.10273683E-06   -99.181
   99   153.449   0.32112005E-07   -99.186
  100  -151.090   0.50274608E-07   -99.200
  101   -38.408   0.33905959E-07   -99.215
  102  -149.159   0.50269239E-07   -99.264
  103    54.344   0.85245851E-07   -99.293
  104  -162.039   0.10278694E-06   -99.307
  105  -158.586   0.10278415E-06   -99.336
  106     0.976   0.35503199E-07   -99.416
  107  -134.149   0.84391537E-07   -99.431
  108   125.145   0.32131478E-07   -99.520
  109    18.121   0.38529571E-07   -99.885
     8    107
    1   -24.441   0.47827555E-07   -75.859
    2   -11.437   0.47824500E-07   -76.942
    3  -155.169   0.47554952E-07   -78.533
    4    41.093   0.32963644E-07   -79.302
    5   -71.125   0.33192446E-07   -79.529
    6    48.147   0.47827200E-07   -80.473
    7   -84.554   0.48593449E-07   -80.522
    8    64.971   0.33366049E-07   -80.840
    9    83.143   0.33351192E-07   -81.061
   10   138.425   0.49953357E-07   -83.184
   11   100.308   0.33342047E-07   -83.195
   12   -60.587   0.34444756E-07   -84.691
   13  -146.605   0.49921329E-07   -84.969
   14  -114.750   0.49892204E-07   -85.621
   15   -66.006   0.34464801E-07   -87.195
   16   -38.322   0.34444732E-07   -87.440
   17   -69.119   0.34463639E-07   -87.589
   18   -84.349   0.49888122E-07   -87.671
   19   -40.666   0.34450625E-07   -87.940
   20   -12.173   0.10829729E-06   -88.205
   21   -65.067   0.34461625E-07   -88.359
   22   -19.648   0.34126227E-07   -89.224
   23   -20.174   0.34126508E-07   -89.243
   24   -28.594   0.34685197E-07   -89.475
   25   160.981   0.24215367E-06   -89.568
   26   161.952   0.24215277E-06   -89.646
   27   -35.568   0.34455255E-07   -89.846
   28   -38.200   0.34467011E-07   -90.069
   29  -119.464   0.94220098E-07   -90.718
   30   -53.393   0.79905121E-07   -90.802
   31   -78.588   0.39156895E-07   -91.119
   32   -78.565   0.39156877E-07   -91.124
   33  -103.902   0.94349772E-07   -91.196
   34  -125.225   0.39334328E-07   -91.253
   35   -43.179   0.24288394E-06   -91.271
   36    62.099   0.51602903E-07   -91.312
   37   -77.083   0.80065746E-07   -91.389
   38   -45.250   0.24246353E-06   -91.451
   39   -29.905   0.30287403E-07   -91.913
   40   -69.777   0.80064865E-07   -92.257
   41  -154.819   0.10884705E-06   -92.293
   42    19.270   0.39503977E-07   -92.332
   43    40.358   0.39484970E-07   -92.544
   44    25.282   0.39494875E-07   -92.864
   45   -53.343   0.94748572E-07   -93.146
   46   -36.897   0.24246768E-06   -93.407
   47    65.956   0.39476994E-07   -93.557
   48    73.088   0.39467160E-07   -93.991
   49    71.522   0.39468677E-07   -94.011
   50    27.312   0.39503000E-07   -94.032
   51    -2.804   0.51139281E-07   -94.100
   52  -124.208   0.80536800E-07   -94.192
   53  -119.655   0.80533290E-07   -94.303
   54    51.372   0.36204515E-07   -94.306
   55   144.364   0.40105245E-07   -94.347
   56  -116.568   0.80530924E-07   -94.394
   57   -49.932   0.94743214E-07   -94.712
   58   -54.807   0.94747087E-07   -94.713
   59  -112.141   0.80531329E-07   -94.895
   60    30.473   0.80398586E-07   -94.935
   61    35.115   0.80394905E-07   -94.935
   62  -104.094   0.39590084E-07   -94.980
   63   -34.260   0.35188961E-07   -95.276
   64  -146.999   0.80562245E-07   -95.339
   65   111.393   0.40414605E-07   -95.489
   66  -103.318   0.80528253E-07   -95.634
   67   126.323   0.81321005E-07   -95.976
   68   148.366   0.40116774E-07   -96.044
   69   -93.452   0.44206015E-07   -96.099
   70  -158.381   0.24239947E-06   -96.100
   71   115.221   0.35881403E-07   -96.328
   72   -22.619   0.95427431E-07   -96.340
   73    46.444   0.35936072E-07   -96.387
   74  -133.087   0.24252174E-06   -96.390
   75   -16.963   0.95422948E-07   -96.490
   76    10.609   0.36256711E-07   -96.586
   77  -161.544   0.37931336E-07   -96.914
   78   166.043   0.51588678E-07   -96.956
   79    66.948   0.40467135E-07   -97.246
   80   138.702   0.15100483E-06   -97.277
   81   127.572   0.15101367E-06   -97.277
   82  -150.706   0.15109720E-06   -97.448
   83   120.156   0.51617256E-07   -97.463
   84   147.505   0.81315719E-07   -97.586
   85  -150.944   0.15109129E-06   -97.601
   86  -148.263   0.15108915E-06   -97.601
   87  -147.917   0.24341443E-06   -97.674
   88  -145.549   0.39626592E-07   -97.766
   89  -152.222   0.15109460E-06   -97.881
   90   131.671   0.37975635E-07   -97.890
   91   -61.251   0.81180175E-07   -97.945
   92  -139.752   0.15108495E-06   -97.971
   93   -81.055   0.24304907E-06   -98.016
   94   -83.461   0.24305078E-06   -98.131
   95  -148.853   0.35285940E-07   -98.173
   96  -121.835   0.40593093E-07   -98.454
   97   -99.012   0.36224581E-07   -98.762
   98    92.641   0.40436888E-07   -98.771
   99   -14.104   0.99388551E-07   -98.912
  100    69.893   0.99464621E-07   -98.936
  101   -53.267   0.50583324E-07   -99.046
  102   129.319   0.40410619E-07   -99.113
  103     2.181   0.99517727E-07   -99.340
  104    96.123   0.82073591E-07   -99.340
  105   117.472   0.70556631E-07   -99.345
  106     8.879   0.99512363E-07   -99.368
  107   162.094   0.53157503E-07   -99.381
     9    128
    1  -131.836   0.31847311E-07   -63.604
    2  -157.410   0.31867543E-07   -63.646
    3   -25.429   0.33050444E-07   -70.498
    4   -27.871   0.33052419E-07   -70.536
    5   175.189   0.51082296E-07   -76.581
    6   152.129   0.51088961E-07   -76.729
    7  -159.746   0.51081152E-07   -77.500
    8   -96.265   0.34943451E-07   -77.802
    9    27.652   0.50826745E-07   -79.242
   10   -17.581   0.34905497E-07   -79.995
   11  -176.983   0.51801823E-07   -80.966
   12  -105.834   0.51080416E-07   -81.106
   13    55.152   0.35919225E-07   -81.187
   14   134.365   0.35711121E-07   -81.259
   15  -151.293   0.36075992E-07   -82.640
   16  -143.222   0.36069192E-07   -82.851
   17  -125.387   0.53019878E-07   -83.438
   18  -121.055   0.36057958E-07   -84.726
   19   -95.958   0.53016322E-07   -85.586
   20  -125.748   0.53035940E-07   -86.010
   21   177.367   0.37082298E-07   -86.267
   22  -141.848   0.53067659E-07   -87.415
   23   -88.121   0.53026010E-07   -88.178
   24   154.371   0.11159369E-06   -88.451
   25  -161.298   0.37082252E-07   -88.897
   26   162.081   0.37103444E-07   -89.135
   27    24.144   0.23883371E-06   -89.451
   28  -162.132   0.37084327E-07   -89.520
   29    27.807   0.23883067E-06   -89.528
   30    43.813   0.90947658E-07   -90.450
   31  -165.786   0.36783753E-07   -90.901
   32  -170.363   0.36787284E-07   -90.917
   33    54.122   0.91081503E-07   -90.927
   34    30.674   0.54198335E-07   -91.034
   35  -130.910   0.37306727E-07   -91.084
   36   170.759   0.23957131E-06   -91.155
   37   160.769   0.37127641E-07   -91.271
   38   173.740   0.23914689E-06   -91.334
   39    72.560   0.76673871E-07   -91.392
   40   128.932   0.76771819E-07   -91.430
   41   143.697   0.33003044E-07   -91.488
   42  -172.490   0.37099621E-07   -91.494
   43   124.378   0.33013304E-07   -91.506
   44  -158.610   0.37096168E-07   -91.632
   45    44.659   0.91093334E-07   -91.742
   46   100.656   0.33031842E-07   -91.827
   47    38.765   0.76842461E-07   -92.015
   48   176.941   0.41496353E-07   -92.344
   49   176.922   0.41496367E-07   -92.346
   50    12.444   0.11214288E-06   -92.540
   51   143.841   0.41662840E-07   -92.589
   52    53.628   0.76835633E-07   -92.843
   53    86.295   0.91494890E-07   -92.888
   54    75.028   0.91503395E-07   -93.015
   55  -171.991   0.23914635E-06   -93.291
   56   -65.476   0.77342619E-07   -93.540
   57   -39.591   0.41806867E-07   -93.550
   58   -41.589   0.41808594E-07   -93.597
   59   -38.712   0.41806192E-07   -93.608
   60  -133.181   0.54622202E-07   -93.639
   61   173.075   0.33269050E-07   -93.932
   62  -170.584   0.33258122E-07   -94.035
   63  -160.789   0.33254270E-07   -94.112
   64   162.433   0.54673663E-07   -94.306
   65   -15.224   0.41799911E-07   -94.408
   66    79.880   0.91497334E-07   -94.462
   67    74.066   0.91501946E-07   -94.462
   68   -69.376   0.77358138E-07   -94.557
   69    99.713   0.42405368E-07   -94.584
   70    -8.874   0.41792564E-07   -94.611
   71   119.465   0.77185106E-07   -94.669
   72   124.964   0.77180744E-07   -94.670
   73   -29.001   0.77326369E-07   -94.851
   74   -48.679   0.41821462E-07   -94.914
   75    -8.576   0.41790290E-07   -94.930
   76   179.340   0.77430876E-07   -95.112
   77   -20.626   0.77323648E-07   -95.261
   78   -27.808   0.77333056E-07   -95.297
   79  -109.506   0.41851166E-07   -95.363
   80   -89.177   0.41256612E-07   -95.594
   81   120.065   0.77196361E-07   -95.635
   82    72.504   0.23907336E-06   -95.983
   83    68.480   0.92212275E-07   -96.105
   84   -17.008   0.77324913E-07   -96.133
   85  -174.821   0.23912642E-06   -96.195
   86   128.419   0.46291792E-07   -96.293
   87  -174.449   0.78142676E-07   -96.511
   88    95.245   0.92191044E-07   -96.535
   89    91.850   0.23920259E-06   -96.587
   90    97.523   0.42683155E-07   -96.640
   91  -154.197   0.41901789E-07   -96.957
   92    65.197   0.42705974E-07   -97.119
   93    -7.124   0.11201861E-06   -97.314
   94   -97.774   0.15433537E-06   -97.464
   95   -92.894   0.37775912E-07   -97.532
   96    61.080   0.24010569E-06   -97.558
   97   121.259   0.38712734E-07   -97.608
   98   -26.590   0.15442116E-06   -97.788
   99   -24.197   0.15441925E-06   -97.788
  100     9.984   0.40342996E-07   -97.865
  101    43.430   0.38771798E-07   -97.892
  102   137.270   0.23973294E-06   -97.900
  103   138.912   0.23973143E-06   -98.014
  104     0.904   0.77995665E-07   -98.046
  105   -24.058   0.15442144E-06   -98.067
  106   162.585   0.78172405E-07   -98.110
  107   -14.318   0.15441398E-06   -98.157
  108    26.220   0.38786478E-07   -98.224
  109    46.121   0.38474006E-07   -98.309
  110    87.219   0.40655713E-07   -98.424
  111   117.876   0.38417234E-07   -98.471
  112    53.817   0.34879651E-07   -98.638
  113   132.627   0.96129234E-07   -98.684
  114    28.074   0.38488857E-07   -98.696
  115   -42.650   0.11053423E-06   -98.786
  116    35.897   0.53647163E-07   -98.788
  117    29.480   0.34898271E-07   -98.845
  118  -125.238   0.42858304E-07   -98.975
  119   153.788   0.96254496E-07   -99.139
  120   145.206   0.96261296E-07   -99.146
  121  -171.235   0.93131014E-07   -99.168
  122    -4.819   0.11064632E-06   -99.210
  123    39.843   0.56103744E-07   -99.212
  124   -11.722   0.11065178E-06   -99.216
  125   173.617   0.93139576E-07   -99.242
  126     0.800   0.56130926E-07   -99.247
  127   110.428   0.42684892E-07   -99.883
  128   104.603   0.78931656E-07   -99.996
    10    134
    1  -147.083   0.34991313E-07   -64.174
    2  -134.275   0.34988485E-07   -64.253
    3  -166.367   0.35010114E-07   -64.340
    4   154.571   0.36050228E-07   -70.370
    5   113.523   0.36071881E-07   -70.849
    6   125.731   0.36073374E-07   -70.874
    7    16.688   0.54347034E-07   -77.089
    8     7.880   0.54346302E-07   -77.215
    9   -76.531   0.37788936E-07   -77.258
   10  -103.769   0.37799417E-07   -77.340
   11   -57.685   0.37793669E-07   -79.199
   12   -14.863   0.37748851E-07   -79.763
   13  -154.383   0.54106156E-07   -79.909
   14    69.588   0.55022461E-07   -81.108
   15    41.820   0.37734235E-07   -81.707
   16    92.814   0.54343420E-07   -81.769
   17  -152.408   0.39413820E-07   -83.072
   18    56.513   0.38745892E-07   -83.386
   19   113.916   0.38551669E-07   -83.868
   20   161.120   0.40005499E-07   -84.521
   21  -137.230   0.38889066E-07   -85.144
   22  -130.422   0.38883314E-07   -85.334
   23  -131.946   0.56172031E-07   -85.998
   24  -143.956   0.56181559E-07   -86.222
   25   175.102   0.40017365E-07   -87.116
   26   -85.624   0.39844583E-07   -87.450
   27  -120.981   0.38878174E-07   -87.643
   28  -116.053   0.56177974E-07   -87.842
   29  -107.027   0.56171320E-07   -88.234
   30   -77.421   0.39825846E-07   -88.524
   31   -54.157   0.11490204E-06   -88.696
   32  -114.917   0.23551550E-06   -89.332
   33  -108.221   0.23551006E-06   -89.409
   34  -168.285   0.87691319E-07   -90.371
   35   -86.776   0.11387298E-06   -90.498
   36   -37.916   0.11398024E-06   -90.590
   37   -78.335   0.39843869E-07   -90.646
   38  -163.991   0.87829868E-07   -90.885
   39    14.946   0.23626639E-06   -91.040
   40    92.251   0.57283859E-07   -91.111
   41    26.247   0.23583536E-06   -91.219
   42  -101.692   0.36048263E-07   -91.289
   43  -170.173   0.87839162E-07   -91.662
   44  -178.823   0.73452412E-07   -91.679
   45   -73.130   0.39836518E-07   -91.807
   46  -156.327   0.88259412E-07   -91.844
   47   -97.085   0.39570381E-07   -91.903
   48  -156.762   0.36087002E-07   -91.939
   49    68.911   0.11431824E-06   -91.992
   50   -60.698   0.39855522E-07   -92.290
   51   140.415   0.73626531E-07   -92.301
   52     2.361   0.40036905E-07   -92.561
   53  -155.506   0.88257785E-07   -92.752
   54   164.418   0.11545084E-06   -92.785
   55  -132.070   0.39868926E-07   -92.871
   56    49.639   0.23582759E-06   -93.173
   57   152.212   0.73622310E-07   -93.207
   58   -15.946   0.40041783E-07   -93.597
   59   -58.421   0.39841893E-07   -93.703
   60   -87.496   0.39545988E-07   -93.714
   61   105.838   0.11458125E-06   -93.817
   62   -67.513   0.36305110E-07   -93.824
   63   -40.177   0.57683216E-07   -93.826
   64   -87.688   0.43964658E-07   -93.847
   65   -87.708   0.43964675E-07   -93.849
   66     9.130   0.74148147E-07   -93.900
   67   -40.556   0.36288103E-07   -94.001
   68  -164.620   0.88267797E-07   -94.032
   69    13.321   0.42045347E-07   -94.063
   70  -109.894   0.44122345E-07   -94.151
   71   -93.015   0.39858097E-07   -94.213
   72  -105.416   0.39556557E-07   -94.286
   73   177.466   0.88277353E-07   -94.376
   74   178.479   0.73999210E-07   -94.574
   75   142.243   0.11525106E-06   -94.605
   76  -169.535   0.88274540E-07   -94.613
   77   173.315   0.74003395E-07   -94.692
   78  -158.892   0.88266418E-07   -94.762
   79    98.259   0.44243862E-07   -94.821
   80    19.773   0.74148645E-07   -94.854
   81    35.268   0.74136423E-07   -95.017
   82    98.099   0.44241588E-07   -95.101
   83    67.114   0.44266073E-07   -95.101
   84    80.256   0.44255732E-07   -95.124
   85    40.171   0.74140061E-07   -95.389
   86   157.674   0.42717268E-07   -95.678
   87    69.170   0.44259686E-07   -95.683
   88    64.969   0.44263047E-07   -95.728
   89   150.441   0.42726629E-07   -95.808
   90   -57.935   0.23574830E-06   -95.864
   91  -100.969   0.44824912E-07   -95.898
   92    16.766   0.74155544E-07   -96.053
   93    54.530   0.23580154E-06   -96.076
   94   -36.637   0.23587376E-06   -96.154
   95   -69.426   0.11488098E-06   -96.189
   96    61.898   0.44277193E-07   -96.336
   97   108.144   0.44241020E-07   -96.345
   98  -128.125   0.14849839E-06   -96.499
   99   -89.073   0.44810328E-07   -96.522
  100  -172.631   0.88979021E-07   -96.675
  101    57.936   0.74134299E-07   -96.787
  102   173.044   0.48517983E-07   -96.940
  103     3.831   0.44304169E-07   -96.979
  104   -76.603   0.41394372E-07   -97.248
  105  -131.822   0.42694243E-07   -97.337
  106    22.422   0.56489164E-07   -97.437
  107  -102.705   0.23680711E-06   -97.443
  108   152.874   0.11532020E-06   -97.560
  109    24.709   0.15766673E-06   -97.648
  110    -8.210   0.23641982E-06   -97.783
  111    -1.245   0.23641411E-06   -97.896
  112   -84.024   0.45087116E-07   -97.988
  113   102.405   0.15774965E-06   -98.251
  114    69.490   0.75810540E-07   -98.323
  115   109.832   0.15774401E-06   -98.341
  116   -27.378   0.44344624E-07   -98.363
  117    11.950   0.42850509E-07   -98.429
  118   125.442   0.43183928E-07   -98.536
  119   -38.401   0.37807958E-07   -98.559
  120   119.194   0.10726293E-06   -98.574
  121   136.865   0.56692393E-07   -98.693
  122   -67.845   0.11613925E-06   -98.936
  123   148.954   0.10738147E-06   -98.969
  124   -98.927   0.74958933E-07   -99.000
  125  -170.709   0.89991666E-07   -99.187
  126   -62.708   0.56704362E-07   -99.243
  127   -77.997   0.56716523E-07   -99.247
  128    30.221   0.56918644E-07   -99.304
  129    36.591   0.56913489E-07   -99.350
  130    32.888   0.42874351E-07   -99.377
  131  -110.055   0.10772884E-06   -99.413
  132  -117.706   0.89950071E-07   -99.512
  133     5.107   0.41347217E-07   -99.577
  134   142.133   0.43454538E-07   -99.760
    11    128
    1   155.312   0.38183515E-07   -64.910
    2   146.695   0.38175706E-07   -64.937
    3   128.019   0.38194166E-07   -65.007
    4  -169.600   0.39149594E-07   -70.667
    5   139.102   0.39175440E-07   -71.210
    6   -85.980   0.39375028E-07   -73.069
    7   110.945   0.40760696E-07   -77.128
    8  -147.160   0.57613761E-07   -78.409
    9   163.799   0.40745281E-07   -79.361
   10  -163.654   0.40711988E-07   -79.535
   11    10.094   0.57392402E-07   -80.694
   12   -59.314   0.58259634E-07   -81.585
   13  -102.512   0.57619037E-07   -81.585
   14  -108.188   0.40697817E-07   -81.632
   15   -85.493   0.57615839E-07   -82.480
   16  -179.452   0.42276582E-07   -82.901
   17   143.362   0.59366254E-07   -86.218
   18  -140.935   0.42831921E-07   -86.226
   19  -113.692   0.42810317E-07   -86.338
   20   164.890   0.59353130E-07   -86.387
   21   -38.609   0.41646306E-07   -86.697
   22     4.724   0.41465981E-07   -86.973
   23  -144.335   0.59342455E-07   -87.580
   24   168.776   0.59371448E-07   -87.624
   25  -148.462   0.59342263E-07   -88.113
   26   159.807   0.41765929E-07   -88.691
   27    88.207   0.11821763E-06   -88.938
   28  -159.740   0.44694055E-07   -89.331
   29   106.393   0.23219674E-06   -89.366
   30   159.242   0.41774467E-07   -89.966
   31   101.159   0.11058097E-06   -90.265
   32   -24.389   0.84441957E-07   -90.550
   33   129.348   0.11070089E-06   -90.595
   34   137.505   0.11069421E-06   -90.706
   35  -156.490   0.23297387E-06   -90.930
   36   -28.272   0.84586929E-07   -91.100
   37  -130.763   0.23253141E-06   -91.106
   38   -41.943   0.84597708E-07   -91.137
   39   119.018   0.60396772E-07   -91.200
   40   -86.375   0.39182165E-07   -91.390
   41  -140.569   0.44710184E-07   -91.462
   42  -102.675   0.70252973E-07   -91.756
   43  -110.770   0.11103214E-06   -91.841
   44   155.523   0.44761268E-07   -91.965
   45  -118.147   0.11103772E-06   -92.000
   46  -152.596   0.70434368E-07   -92.375
   47  -101.780   0.11130977E-06   -92.391
   48  -148.168   0.70430715E-07   -92.445
   49   -90.983   0.42660321E-07   -92.532
   50   -44.294   0.85034351E-07   -92.930
   51   -92.990   0.23251221E-06   -93.056
   52    10.865   0.60777076E-07   -93.586
   53   -97.231   0.11131778E-06   -93.645
   54   -49.379   0.85033484E-07   -93.776
   55   -49.013   0.85037129E-07   -94.243
   56   -40.328   0.85034102E-07   -94.297
   57    20.259   0.39376040E-07   -94.342
   58   -75.156   0.11199503E-06   -94.383
   59   -65.444   0.42659774E-07   -94.761
   60   -91.229   0.42673864E-07   -94.851
   61   -53.058   0.85047247E-07   -94.938
   62   -59.778   0.85052577E-07   -94.939
   63    45.932   0.45366654E-07   -95.048
   64   -82.309   0.42669431E-07   -95.256
   65   -98.600   0.42677609E-07   -95.419
   66   -13.614   0.59644684E-07   -95.666
   67   170.073   0.23242448E-06   -95.744
   68  -128.977   0.46541611E-07   -95.772
   69  -140.681   0.46693405E-07   -95.773
   70  -129.033   0.46541654E-07   -95.776
   71   -55.788   0.42672575E-07   -95.929
   72   -77.696   0.23247790E-06   -95.956
   73    86.682   0.11161423E-06   -95.963
   74    18.809   0.42850729E-07   -96.030
   75  -170.970   0.23255180E-06   -96.034
   76    51.744   0.50873144E-07   -96.152
   77    43.085   0.14521964E-06   -96.336
   78   -89.278   0.70806720E-07   -96.425
   79    76.187   0.46808200E-07   -96.442
   80  -103.620   0.42393495E-07   -96.453
   81    17.340   0.42848168E-07   -96.551
   82   114.079   0.59836950E-07   -96.676
   83   124.411   0.45344191E-07   -96.684
   84   -84.039   0.70806394E-07   -96.686
   85    74.850   0.70978317E-07   -96.733
   86   -95.468   0.85782624E-07   -96.741
   87   -89.698   0.59848425E-07   -96.841
   88  -103.311   0.59859460E-07   -96.945
   89    62.308   0.46814026E-07   -97.047
   90    75.652   0.46803493E-07   -97.057
   91    42.716   0.46829530E-07   -97.066
   92    29.587   0.46840139E-07   -97.156
   93   142.595   0.59961010E-07   -97.287
   94    22.632   0.60051192E-07   -97.321
   95    71.911   0.23352567E-06   -97.334
   96   -62.340   0.85769436E-07   -97.512
   97    51.502   0.46834476E-07   -97.561
   98  -158.447   0.23311050E-06   -97.665
   99  -116.905   0.42395229E-07   -97.756
  100   -91.436   0.45492339E-07   -97.762
  101    -6.382   0.60483238E-07   -97.762
  102  -144.429   0.23309917E-06   -97.777
  103   -58.564   0.11863087E-06   -97.803
  104   146.421   0.16099871E-06   -97.828
  105    88.291   0.46803137E-07   -97.865
  106  -152.645   0.23310550E-06   -97.889
  107   -78.778   0.47351261E-07   -97.900
  108    21.394   0.60057289E-07   -98.025
  109   -70.238   0.47341580E-07   -98.266
  110    68.357   0.46816513E-07   -98.297
  111    40.731   0.60042908E-07   -98.372
  112  -127.026   0.16107485E-06   -98.521
  113  -130.273   0.16107744E-06   -98.521
  114    60.195   0.46820386E-07   -98.672
  115  -128.760   0.71839722E-07   -99.107
  116     5.205   0.62115305E-07   -99.163
  117    32.563   0.60056635E-07   -99.244
  118   132.231   0.60666423E-07   -99.430
  119    95.366   0.22213412E-06   -99.499
  120    62.889   0.14824542E-06   -99.537
  121  -133.848   0.86827704E-07   -99.576
  122   -47.693   0.47604502E-07   -99.657
  123  -153.021   0.22218804E-06   -99.710
  124   -16.408   0.62643352E-07   -99.871
  125   -72.911   0.47623949E-07   -99.914
  126    49.442   0.44127532E-07   -99.969
  127   129.849   0.60672157E-07   -99.996
  128  -173.306   0.40807940E-07  -100.000
    12    112
    1    37.541   0.41386542E-07   -65.571
    2    21.128   0.41403247E-07   -65.694
    3   173.737   0.42286597E-07   -70.950
    4   129.404   0.42310536E-07   -71.553
    5   138.102   0.42311424E-07   -71.573
    6   -75.367   0.42491020E-07   -73.308
    7  -104.062   0.43781114E-07   -77.183
    8    29.492   0.60893832E-07   -78.831
    9   -41.008   0.43744802E-07   -79.078
   10   -64.172   0.43771099E-07   -79.092
   11   -31.401   0.43737799E-07   -79.621
   12   172.643   0.60683838E-07   -81.213
   13    17.728   0.43723848E-07   -81.557
   14   166.381   0.61500913E-07   -81.981
   15    81.085   0.60897882E-07   -82.004
   16    88.286   0.45194788E-07   -82.721
   17    91.997   0.60895232E-07   -82.921
   18  -166.177   0.45697540E-07   -86.108
   19   153.046   0.62501428E-07   -86.470
   20   102.343   0.62541652E-07   -86.684
   21   179.970   0.62497563E-07   -88.246
   22   140.595   0.62532990E-07   -88.326
   23   140.361   0.62529246E-07   -88.437
   24  -163.569   0.45712831E-07   -88.626
   25   -68.141   0.47467189E-07   -88.920
   26   -31.524   0.22887762E-06   -89.246
   27   -77.686   0.10729838E-06   -90.219
   28   -58.387   0.10742534E-06   -90.550
   29    99.598   0.81204604E-07   -90.555
   30   -43.274   0.10741315E-06   -90.660
   31    90.817   0.81353470E-07   -91.103
   32    78.915   0.81362842E-07   -91.140
   33   -49.283   0.47482821E-07   -91.260
   34    76.058   0.14685030E-06   -91.351
   35   154.757   0.14693298E-06   -91.408
   36    26.091   0.81828070E-07   -91.484
   37   178.832   0.44439638E-07   -91.495
   38    48.230   0.10776713E-06   -91.796
   39    51.645   0.10776414E-06   -91.955
   40    49.791   0.10804662E-06   -92.165
   41   134.879   0.44612413E-07   -92.412
   42   118.710   0.22920133E-06   -92.941
   43   -21.363   0.44735287E-07   -93.206
   44    50.367   0.10805778E-06   -93.412
   45    63.667   0.81819593E-07   -93.669
   46    31.756   0.63895222E-07   -93.765
   47    57.120   0.81813901E-07   -94.042
   48   -53.468   0.63223503E-07   -94.234
   49   -71.716   0.62818181E-07   -94.244
   50  -161.084   0.48095050E-07   -94.296
   51    -9.294   0.44720302E-07   -94.301
   52    51.615   0.10875541E-06   -94.518
   53    -2.861   0.44727742E-07   -94.625
   54    11.627   0.48232053E-07   -95.002
   55    67.819   0.63000861E-07   -95.081
   56    96.670   0.63120673E-07   -95.110
   57   -18.080   0.63210969E-07   -95.609
   58    36.238   0.22910214E-06   -95.623
   59  -163.474   0.10838419E-06   -95.769
   60  -130.052   0.63011576E-07   -95.820
   61   148.210   0.22915576E-06   -95.835
   62    -9.794   0.82577657E-07   -95.876
   63    52.571   0.22923153E-06   -95.914
   64  -143.254   0.63022284E-07   -95.921
   65    42.357   0.65171882E-07   -96.035
   66   -94.144   0.48073510E-07   -96.328
   67   -40.261   0.67628790E-07   -96.434
   68   -34.284   0.67624050E-07   -96.436
   69  -162.753   0.45549861E-07   -96.481
   70  -157.634   0.14195439E-06   -96.571
   71   -10.648   0.63212617E-07   -96.711
   72     6.245   0.63197277E-07   -96.744
   73    21.859   0.62929978E-07   -96.956
   74   151.776   0.10968778E-06   -96.990
   75   -39.909   0.82603457E-07   -97.211
   76    -0.224   0.63209406E-07   -97.439
   77   168.826   0.45567493E-07   -97.560
   78    68.725   0.22978715E-06   -97.658
   79  -154.480   0.45567315E-07   -97.658
   80   145.503   0.65634111E-07   -97.706
   81    65.040   0.22978988E-06   -97.768
   82   -10.694   0.63620746E-07   -97.784
   83    79.659   0.49209227E-07   -97.827
   84    75.967   0.49354689E-07   -97.844
   85   144.060   0.63788555E-07   -98.059
   86   135.016   0.63795632E-07   -98.124
   87    74.276   0.49210730E-07   -98.223
   88    60.183   0.65180195E-07   -98.344
   89    24.325   0.83119922E-07   -98.349
   90     5.687   0.63615310E-07   -98.454
   91   171.813   0.53319120E-07   -98.488
   92  -170.158   0.45568658E-07   -98.716
   93  -154.157   0.45557041E-07   -98.788
   94   154.039   0.63790864E-07   -98.875
   95   141.104   0.63798467E-07   -99.075
   96   -79.423   0.49473908E-07   -99.086
   97   -87.194   0.49480057E-07   -99.108
   98   148.305   0.63799234E-07   -99.179
   99   -38.433   0.63921625E-07   -99.244
  100   -12.056   0.64335666E-07   -99.319
  101    14.476   0.63614152E-07   -99.382
  102   -57.101   0.21882656E-06   -99.383
  103    39.200   0.48505136E-07   -99.395
  104   -63.520   0.49458595E-07   -99.467
  105    54.364   0.21888059E-06   -99.594
  106    78.224   0.23022064E-06   -99.660
  107   -52.952   0.21896562E-06   -99.672
  108   -48.315   0.21896189E-06   -99.709
  109     2.711   0.63626430E-07   -99.897
  110  -176.434   0.10967238E-06   -99.936
  111  -161.087   0.45557417E-07   -99.966
  112    27.310   0.63608120E-07   -99.977
    13    108
    1   -90.742   0.44616051E-07   -66.296
    2  -100.932   0.44631747E-07   -66.389
    3  -124.037   0.44634849E-07   -66.565
    4   131.205   0.45451571E-07   -71.377
    5    94.718   0.45469168E-07   -71.853
    6   -31.567   0.46847315E-07   -77.284
    7    20.642   0.46834465E-07   -79.083
    8  -149.046   0.64174579E-07   -79.473
    9    36.531   0.46822404E-07   -79.574
   10    37.120   0.46810147E-07   -79.729
   11    93.377   0.46793453E-07   -81.376
   12   -25.353   0.63980004E-07   -81.866
   13    18.338   0.64757273E-07   -82.405
   14  -103.304   0.64183318E-07   -82.622
   15   -83.614   0.48176076E-07   -82.738
   16   -93.400   0.64181009E-07   -83.415
   17   -77.087   0.45362693E-07   -83.853
   18   -83.922   0.45367610E-07   -84.152
   19    31.983   0.48682896E-07   -85.666
   20    64.064   0.48641997E-07   -85.872
   21    15.750   0.65753277E-07   -86.824
   22    46.701   0.65728685E-07   -86.843
   23    52.382   0.65737204E-07   -88.406
   24   -87.931   0.50328385E-07   -88.419
   25   -79.185   0.50329263E-07   -88.464
   26    92.648   0.65705571E-07   -88.651
   27   -53.559   0.50305033E-07   -88.761
   28    57.284   0.48668113E-07   -88.777
   29  -172.195   0.22556070E-06   -89.125
   30    98.566   0.10401960E-06   -90.111
   31   130.095   0.10413667E-06   -90.551
   32   -71.814   0.14353908E-06   -91.162
   33   -43.710   0.50323514E-07   -91.274
   34  -176.410   0.10451267E-06   -91.477
   35    -0.016   0.14362438E-06   -91.490
   36  -155.669   0.10450011E-06   -91.728
   37  -150.190   0.10449987E-06   -91.763
   38  -160.177   0.10479269E-06   -92.242
   39  -158.020   0.10479467E-06   -92.419
   40  -152.642   0.14388672E-06   -92.434
   41   -66.655   0.14410352E-06   -92.826
   42   -37.377   0.22589664E-06   -92.828
   43  -148.757   0.14388857E-06   -93.157
   44  -160.181   0.10480422E-06   -93.489
   45   -26.616   0.47598597E-07   -93.653
   46   -57.348   0.14410226E-06   -93.653
   47    33.355   0.67032438E-07   -93.748
   48     0.354   0.66181890E-07   -93.781
   49   -74.187   0.66375172E-07   -93.849
   50  -114.336   0.50903896E-07   -93.876
   51   -73.360   0.47481929E-07   -94.203
   52    18.093   0.47559997E-07   -94.205
   53   -76.390   0.66384786E-07   -94.289
   54    90.667   0.51019050E-07   -94.456
   55   176.096   0.14462229E-06   -94.468
   56   166.214   0.10552564E-06   -94.480
   57   153.222   0.10553538E-06   -94.787
   58   -98.971   0.65488990E-07   -94.862
   59   -59.419   0.66378924E-07   -95.177
   60   -49.658   0.66368941E-07   -95.394
   61   -99.801   0.22578153E-06   -95.502
   62   163.489   0.14464032E-06   -95.678
   63    11.879   0.22583539E-06   -95.714
   64   161.404   0.66204983E-07   -95.716
   65   -86.432   0.22591328E-06   -95.793
   66   124.575   0.47746191E-07   -95.919
   67   -46.885   0.50881152E-07   -95.924
   68   120.579   0.68248397E-07   -96.050
   69   131.811   0.47740084E-07   -96.129
   70   -14.284   0.13869776E-06   -96.427
   71   -85.814   0.66008013E-07   -96.608
   72   -32.341   0.66108143E-07   -96.645
   73   177.992   0.14533107E-06   -96.773
   74    93.989   0.66955735E-07   -96.775
   75   -33.615   0.66770149E-07   -96.783
   76    56.634   0.12676490E-06   -96.828
   77   128.940   0.66932174E-07   -96.844
   78   120.073   0.66939094E-07   -96.909
   79  -115.389   0.10647531E-06   -97.096
   80   104.818   0.66949383E-07   -97.116
   81   130.668   0.47748163E-07   -97.246
   82   -82.607   0.22647868E-06   -97.538
   83   -80.549   0.22647684E-06   -97.648
   84   129.820   0.66941205E-07   -97.744
   85   137.571   0.66935073E-07   -97.760
   86  -101.728   0.10646188E-06   -97.899
   87   -45.536   0.67059062E-07   -98.181
   88  -144.668   0.66201800E-07   -98.189
   89   -29.727   0.66782398E-07   -98.204
   90   136.851   0.68253321E-07   -98.372
   91    23.720   0.48533973E-07   -98.698
   92    31.866   0.48527490E-07   -98.699
   93    34.822   0.67433703E-07   -98.796
   94    -4.030   0.66763050E-07   -98.944
   95     0.578   0.66760201E-07   -98.962
   96   -75.264   0.12715836E-06   -99.163
   97  -165.666   0.55855260E-07   -99.261
   98    52.826   0.12686436E-06   -99.416
   99   153.822   0.21552096E-06   -99.471
  100   -18.684   0.66782206E-07   -99.545
  101   -90.320   0.22692583E-06   -99.553
  102    -9.988   0.66776451E-07   -99.673
  103   -95.657   0.21557572E-06   -99.682
  104   153.112   0.21566387E-06   -99.761
  105   160.329   0.21565809E-06   -99.798
  106  -100.963   0.21558152E-06   -99.890
  107   -72.318   0.12716121E-06   -99.942
  108   -68.334   0.12715809E-06   -99.957
    14     97
    1   119.070   0.47878039E-07   -66.895
    2   128.472   0.47859217E-07   -67.066
    3   114.020   0.47874487E-07   -67.109
    4    53.573   0.48640388E-07   -71.793
    5    26.645   0.48658080E-07   -72.172
    6  -166.941   0.48822901E-07   -73.604
    7   -37.440   0.49991126E-07   -76.410
    8    25.553   0.49937256E-07   -77.201
    9    52.122   0.49936062E-07   -79.130
   10    77.827   0.49908284E-07   -79.753
   11    23.353   0.67466324E-07   -79.890
   12    72.038   0.49928065E-07   -81.639
   13   125.907   0.49893892E-07   -81.639
   14   133.501   0.67282500E-07   -82.288
   15    77.394   0.51182905E-07   -82.701
   16  -146.710   0.68031028E-07   -82.706
   17    68.176   0.67475867E-07   -83.009
   18  -161.880   0.48560043E-07   -83.729
   19  -146.997   0.48552806E-07   -83.785
   20    77.427   0.67474005E-07   -83.834
   21  -141.484   0.48558626E-07   -85.029
   22  -121.660   0.51638516E-07   -85.490
   23  -132.089   0.51646847E-07   -85.633
   24  -142.316   0.53199578E-07   -85.986
   25  -121.983   0.53208726E-07   -88.336
   26  -159.659   0.53242424E-07   -88.551
   27  -127.321   0.51663047E-07   -88.572
   28   -52.162   0.68962834E-07   -88.641
   29  -145.984   0.53227826E-07   -88.731
   30   -85.879   0.10074525E-06   -90.211
   31   -67.706   0.10086885E-06   -90.424
   32    55.860   0.50652591E-07   -90.619
   33   134.625   0.14023239E-06   -90.972
   34  -152.970   0.14032007E-06   -91.029
   35   -29.828   0.70209417E-07   -91.438
   36    52.008   0.53876899E-07   -91.532
   37    -8.219   0.10124818E-06   -91.604
   38     3.288   0.10123878E-06   -91.759
   39   -20.137   0.10154238E-06   -92.181
   40    45.097   0.14058693E-06   -92.245
   41    39.767   0.14059103E-06   -92.324
   42   -35.958   0.10155453E-06   -92.405
   43   127.614   0.14080648E-06   -92.637
   44    92.292   0.50623107E-07   -92.834
   45    45.214   0.14059177E-06   -92.971
   46  -163.367   0.53792551E-07   -93.032
   47   -79.358   0.69376547E-07   -93.093
   48   -36.663   0.69485367E-07   -93.126
   49   132.352   0.50607195E-07   -93.187
   50   127.784   0.14081247E-06   -93.465
   51  -142.795   0.53776088E-07   -93.531
   52  -126.115   0.69555398E-07   -93.737
   53   140.906   0.50608524E-07   -93.775
   54  -132.313   0.69564393E-07   -93.967
   55    -3.325   0.14133612E-06   -94.285
   56   -93.674   0.10230653E-06   -94.793
   57   149.741   0.68720169E-07   -95.210
   58   -78.268   0.53750792E-07   -95.432
   59   -32.422   0.14136724E-06   -95.494
   60    87.508   0.70092909E-07   -95.521
   61    89.751   0.71415322E-07   -95.529
   62    79.281   0.70099340E-07   -95.583
   63  -175.740   0.69210714E-07   -95.929
   64  -118.749   0.69308051E-07   -95.967
   65   -79.468   0.69937762E-07   -96.030
   66   -62.768   0.10229681E-06   -96.559
   67     4.530   0.14135755E-06   -96.688
   68   -15.375   0.14205570E-06   -96.740
   69    92.539   0.70098103E-07   -96.804
   70    97.163   0.70098430E-07   -96.988
   71   103.443   0.70093463E-07   -97.005
   72  -133.343   0.13005854E-06   -97.026
   73   -29.315   0.10327196E-06   -97.057
   74   -75.416   0.70214604E-07   -97.196
   75   -15.697   0.70597814E-07   -97.326
   76   135.885   0.69396016E-07   -97.437
   77   129.911   0.22316696E-06   -97.526
   78   -46.897   0.69928745E-07   -97.995
   79     5.963   0.70588101E-07   -98.121
   80   -99.114   0.50523109E-07   -98.167
   81  -107.481   0.50672341E-07   -98.236
   82   162.356   0.71375275E-07   -98.274
   83   -48.384   0.69933222E-07   -98.293
   84   136.704   0.54124012E-07   -98.297
   85   115.939   0.50779722E-07   -98.941
   86   115.326   0.50777924E-07   -98.997
   87    -0.046   0.21221450E-06   -99.351
   88   104.237   0.13044446E-06   -99.361
   89    83.635   0.21228593E-06   -99.371
   90  -135.321   0.13015632E-06   -99.527
   91    93.534   0.21228266E-06   -99.600
   92    -6.649   0.21236210E-06   -99.641
   93     4.636   0.21235309E-06   -99.678
   94   101.881   0.21227768E-06   -99.770
   95   -29.874   0.10326354E-06   -99.830
   96   101.985   0.13044730E-06   -99.956
   97   100.363   0.13045235E-06   -99.978
    15     93
    1   -23.562   0.51115084E-07   -67.697
    2   -40.693   0.51128616E-07   -67.737
    3   -34.890   0.51116249E-07   -67.824
    4    84.791   0.52024863E-07   -71.961
    5   -35.344   0.51845976E-07   -72.236
    6   -75.376   0.51865996E-07   -72.632
    7   115.594   0.52015739E-07   -73.993
    8     7.234   0.53067236E-07   -74.911
    9    43.937   0.53061701E-07   -77.149
   10    25.085   0.53072654E-07   -77.471
   11    17.977   0.53082257E-07   -77.518
   12    91.008   0.53031982E-07   -79.584
   13    59.263   0.53065285E-07   -79.626
   14   124.004   0.53025072E-07   -81.754
   15   110.256   0.53040907E-07   -82.123
   16    91.414   0.51770979E-07   -83.271
   17   110.267   0.51764822E-07   -83.566
   18    97.721   0.51771980E-07   -83.891
   19    -4.354   0.54676068E-07   -85.265
   20   121.016   0.56146813E-07   -88.145
   21    14.064   0.54680516E-07   -88.204
   22    72.009   0.97477077E-07   -89.974
   23   177.234   0.53686762E-07   -90.231
   24   101.650   0.56186511E-07   -90.389
   25    93.081   0.97602374E-07   -90.451
   26   136.200   0.56159536E-07   -90.791
   27   -19.206   0.13693008E-06   -90.974
   28    48.734   0.13701845E-06   -91.302
   29   121.364   0.98002346E-07   -91.461
   30   136.874   0.53857040E-07   -91.623
   31    86.660   0.98314764E-07   -91.959
   32  -126.649   0.13729466E-06   -92.058
   33    92.687   0.98309577E-07   -92.181
   34  -120.585   0.13729404E-06   -92.248
   35  -121.745   0.13729483E-06   -92.327
   36   -42.205   0.13751688E-06   -92.640
   37   160.959   0.53707197E-07   -92.667
   38   -48.754   0.13752634E-06   -92.691
   39  -174.406   0.72591035E-07   -92.975
   40   -80.157   0.53616702E-07   -93.023
   41   -78.842   0.53758271E-07   -93.088
   42  -177.264   0.53705907E-07   -93.198
   43   137.289   0.72771400E-07   -93.463
   44     0.892   0.56789272E-07   -93.535
   45   156.215   0.53856262E-07   -93.872
   46   147.697   0.97995283E-07   -94.005
   47   149.151   0.13807225E-06   -94.118
   48   126.210   0.54577821E-07   -94.397
   49   155.867   0.72761601E-07   -94.458
   50    -5.432   0.99093640E-07   -94.585
   51     8.636   0.99086193E-07   -94.699
   52  -141.140   0.17885924E-06   -94.802
   53  -134.997   0.17842493E-06   -94.886
   54   174.572   0.53848318E-07   -95.077
   55   157.193   0.13808541E-06   -95.205
   56    78.167   0.72426175E-07   -95.284
   57  -145.818   0.73121662E-07   -95.312
   58   136.982   0.72522056E-07   -95.323
   59  -141.082   0.17885093E-06   -95.367
   60    24.221   0.73282258E-07   -95.528
   61   166.166   0.56687462E-07   -95.557
   62  -134.503   0.17842920E-06   -95.563
   63    23.838   0.73286309E-07   -95.801
   64   178.780   0.54539516E-07   -96.142
   65    27.520   0.99082293E-07   -96.340
   66     6.009   0.21983628E-06   -96.372
   67    37.210   0.73281079E-07   -96.437
   68   178.944   0.13807626E-06   -96.501
   69   133.067   0.13879503E-06   -96.573
   70    40.105   0.72603115E-07   -96.717
   71    41.444   0.73277754E-07   -96.830
   72  -118.954   0.73112936E-07   -96.873
   73    20.889   0.13336050E-06   -97.028
   74  -115.861   0.73113796E-07   -97.063
   75     6.472   0.10009693E-06   -97.098
   76   164.353   0.54562854E-07   -97.393
   77  -128.192   0.56664572E-07   -97.553
   78   -29.392   0.54694940E-07   -97.635
   79    58.472   0.73273121E-07   -98.034
   80   176.938   0.54552313E-07   -98.190
   81  -161.971   0.20891444E-06   -99.235
   82  -103.404   0.13374392E-06   -99.275
   83   -47.093   0.17978115E-06   -99.283
   84  -100.610   0.13374175E-06   -99.290
   85   -93.384   0.13373997E-06   -99.364
   86   -52.477   0.20897004E-06   -99.445
   87    22.969   0.13345509E-06   -99.531
   88  -159.472   0.20905475E-06   -99.561
   89    97.580   0.57030629E-07   -99.631
   90   -64.029   0.20898078E-06   -99.654
   91    47.856   0.57062305E-07   -99.710
   92   -17.071   0.10011045E-06   -99.903
   93   -86.252   0.13373912E-06   -99.979
    16     86
    1   -80.655   0.54154125E-07   -67.387
    2   168.198   0.54379704E-07   -68.265
    3   152.166   0.54392363E-07   -68.305
    4   172.024   0.54384518E-07   -68.314
    5  -174.411   0.54380102E-07   -69.180
    6   166.012   0.54391659E-07   -69.230
    7  -159.023   0.55074757E-07   -72.365
    8     4.665   0.55231315E-07   -72.449
    9  -176.612   0.55081181E-07   -73.033
   10    14.057   0.55227595E-07   -74.315
   11     3.780   0.56220752E-07   -77.657
   12    36.551   0.56213644E-07   -79.650
   13    71.314   0.56186213E-07   -79.787
   14     0.276   0.10797176E-06   -80.917
   15    16.041   0.10796779E-06   -81.083
   16    93.762   0.56182525E-07   -81.615
   17  -128.257   0.57329348E-07   -82.848
   18   -10.796   0.54995404E-07   -83.465
   19    -7.555   0.54998392E-07   -84.348
   20    97.609   0.57730006E-07   -85.414
   21   -74.017   0.10889106E-06   -85.997
   22   -66.064   0.10889327E-06   -86.154
   23   107.131   0.57740539E-07   -88.049
   24   -55.969   0.59136546E-07   -88.056
   25   -83.283   0.56877212E-07   -89.056
   26   -82.492   0.56738173E-07   -89.524
   27   -58.366   0.59162090E-07   -90.289
   28   171.330   0.56963934E-07   -90.339
   29   176.170   0.56959969E-07   -90.411
   30   179.399   0.13362960E-06   -90.781
   31  -115.091   0.13371989E-06   -91.109
   32    48.813   0.13401255E-06   -91.875
   33    64.609   0.13400421E-06   -92.058
   34    67.972   0.13400140E-06   -92.134
   35  -154.175   0.75830002E-07   -92.155
   36  -160.376   0.56823012E-07   -92.389
   37  -120.335   0.57611771E-07   -92.395
   38   133.746   0.13423865E-06   -92.493
   39   137.752   0.13423106E-06   -92.530
   40  -137.601   0.57631730E-07   -93.035
   41  -149.999   0.59758264E-07   -93.125
   42   129.781   0.20478065E-06   -93.324
   43   -86.846   0.76486941E-07   -93.465
   44  -118.355   0.57624700E-07   -93.769
   45  -100.033   0.57610382E-07   -94.345
   46  -121.542   0.57623513E-07   -94.366
   47   -97.308   0.57612358E-07   -94.498
   48    56.165   0.17555979E-06   -94.647
   49    49.600   0.57757894E-07   -94.727
   50    72.062   0.17511786E-06   -94.849
   51   138.021   0.76317164E-07   -94.860
   52   102.092   0.20522846E-06   -95.006
   53   -36.492   0.13481056E-06   -95.020
   54   -36.510   0.75652352E-07   -95.149
   55   -23.393   0.13480431E-06   -95.209
   56    23.069   0.59649707E-07   -95.244
   57    66.402   0.17554319E-06   -95.328
   58    71.570   0.17512281E-06   -95.406
   59    23.974   0.75750798E-07   -95.420
   60   -73.963   0.75820594E-07   -95.818
   61   -22.106   0.13479192E-06   -95.906
   62    27.968   0.20528532E-06   -95.994
   63   -94.753   0.57616830E-07   -96.096
   64   156.559   0.76314073E-07   -96.323
   65  -150.523   0.21653175E-06   -96.367
   66   163.817   0.76309064E-07   -96.490
   67    -8.962   0.13480100E-06   -96.501
   68   -66.269   0.75822719E-07   -96.589
   69    11.652   0.20572594E-06   -96.678
   70   -78.280   0.13553813E-06   -96.713
   71   -93.294   0.57624071E-07   -96.955
   72  -100.573   0.13555528E-06   -97.007
   73  -179.900   0.13666272E-06   -97.223
   74    88.444   0.59626167E-07   -97.232
   75  -110.655   0.17612848E-06   -98.054
   76   -11.721   0.20603753E-06   -98.504
   77   119.831   0.58710750E-07   -98.519
   78   -34.481   0.59980621E-07   -99.117
   79   129.798   0.17649791E-06   -99.129
   80    54.608   0.13704290E-06   -99.324
   81   133.921   0.20567924E-06   -99.334
   82    24.939   0.20576553E-06   -99.450
   83    74.494   0.13703131E-06   -99.463
   84    76.689   0.13702960E-06   -99.478
   85    71.605   0.13703760E-06   -99.559
   86  -174.802   0.13675491E-06   -99.725
    17    105
    1    -6.219   0.57653299E-07   -69.027
    2   -21.658   0.57665485E-07   -69.067
    3    32.567   0.58320943E-07   -71.723
    4    84.169   0.58302572E-07   -73.152
    5    52.339   0.58319870E-07   -73.450
    6   -96.578   0.58450304E-07   -74.526
    7   -39.131   0.59393660E-07   -77.764
    8    84.319   0.10979650E-06   -79.009
    9    28.879   0.59353802E-07   -79.573
   10    -8.714   0.59387837E-07   -79.634
   11     0.901   0.59368478E-07   -80.150
   12    50.554   0.59355056E-07   -81.844
   13  -101.090   0.60442005E-07   -82.893
   14   151.834   0.60821449E-07   -85.283
   15    49.026   0.10565055E-06   -85.807
   16    86.003   0.10562973E-06   -85.930
   17    74.811   0.62707386E-07   -86.446
   18  -105.356   0.59882716E-07   -87.563
   19    85.681   0.62158719E-07   -87.812
   20   157.408   0.60834523E-07   -87.897
   21   166.797   0.60089953E-07   -87.969
   22   -91.634   0.11020627E-06   -87.989
   23   163.135   0.60096887E-07   -88.345
   24   150.934   0.62674609E-07   -88.446
   25   -77.764   0.60011530E-07   -88.767
   26    95.094   0.62170280E-07   -90.182
   27   -85.497   0.60711024E-07   -90.277
   28    22.293   0.13032985E-06   -90.708
   29    84.468   0.13042281E-06   -91.036
   30   -52.320   0.79034947E-07   -91.269
   31    83.151   0.60850752E-07   -91.402
   32  -101.844   0.79208540E-07   -91.482
   33  -113.051   0.79217365E-07   -91.523
   34   -67.255   0.79188688E-07   -91.835
   35  -110.706   0.13071892E-06   -91.987
   36  -103.872   0.13071322E-06   -92.137
   37   -66.491   0.60710192E-07   -92.179
   38   -64.780   0.60712807E-07   -92.350
   39   149.148   0.17134349E-06   -92.425
   40   -37.207   0.13094548E-06   -92.460
   41  -120.327   0.17141680E-06   -92.481
   42   -83.926   0.60724211E-07   -92.670
   43   104.955   0.17152078E-06   -92.795
   44    51.655   0.62736987E-07   -92.829
   45    -7.370   0.20146092E-06   -93.185
   46  -143.798   0.79671217E-07   -93.521
   47   118.131   0.13154056E-06   -93.650
   48   -62.004   0.60716637E-07   -93.749
   49  -167.004   0.20186360E-06   -93.771
   50   -60.580   0.60719486E-07   -93.923
   51  -173.892   0.20201135E-06   -94.102
   52   139.669   0.17163522E-06   -94.315
   53    49.993   0.79521769E-07   -94.411
   54  -157.963   0.79686799E-07   -94.466
   55  -143.830   0.79683211E-07   -94.604
   56    44.638   0.79526380E-07   -94.662
   57  -167.132   0.78887275E-07   -94.674
   58   -79.281   0.17180940E-06   -94.691
   59  -127.637   0.79670478E-07   -94.705
   60  -127.715   0.79666727E-07   -94.827
   61   -46.463   0.20191780E-06   -94.868
   62    49.051   0.20226160E-06   -94.897
   63  -169.378   0.62650827E-07   -94.921
   64  -118.068   0.17226124E-06   -95.062
   65   146.047   0.13153111E-06   -95.140
   66   105.304   0.64843121E-07   -95.253
   67   -68.894   0.60734713E-07   -95.641
   68    64.914   0.79518294E-07   -95.793
   69  -141.172   0.79681456E-07   -95.822
   70  -131.617   0.61751457E-07   -95.898
   71  -122.451   0.79670556E-07   -95.924
   72  -176.088   0.79040689E-07   -95.935
   73   140.393   0.13152426E-06   -95.984
   74  -120.162   0.20197403E-06   -96.013
   75   172.989   0.79049599E-07   -96.033
   76    71.803   0.79516603E-07   -96.086
   77   112.731   0.20263745E-06   -96.152
   78    55.746   0.21322518E-06   -96.243
   79   151.751   0.13153472E-06   -96.431
   80   -92.781   0.17224789E-06   -96.489
   81  -142.089   0.20241939E-06   -96.540
   82    48.634   0.13230245E-06   -96.837
   83    61.288   0.13228811E-06   -96.935
   84  -103.627   0.62626640E-07   -97.025
   85   174.108   0.20273883E-06   -97.156
   86   -28.157   0.13996699E-06   -97.437
   87   116.027   0.80475459E-07   -97.888
   88    82.916   0.17283200E-06   -97.902
   89   124.384   0.80465043E-07   -98.056
   90   -74.609   0.61720158E-07   -98.058
   91   -28.698   0.20346046E-06   -98.179
   92   156.190   0.80439811E-07   -98.291
   93   115.813   0.80471850E-07   -98.450
   94   -87.230   0.17225776E-06   -98.890
   95   176.273   0.62948182E-07   -98.925
   96    17.413   0.20314634E-06   -98.952
   97   145.864   0.62980270E-07   -99.074
   98   163.772   0.66634634E-07   -99.079
   99  -124.577   0.14032797E-06   -99.507
  100  -121.397   0.14032548E-06   -99.522
  101   124.009   0.64823141E-07   -99.530
  102    28.326   0.81254647E-07   -99.536
  103  -119.132   0.14032784E-06   -99.653
  104   -40.752   0.80318216E-07   -99.855
  105   -20.217   0.14005694E-06   -99.939
    18    119
    1  -113.565   0.60731814E-07   -68.690
    2   166.312   0.60933147E-07   -69.682
    3   152.083   0.60944373E-07   -69.722
    4   177.796   0.60933303E-07   -70.280
    5   166.263   0.60942845E-07   -70.448
    6   -59.751   0.61551233E-07   -73.234
    7   -81.776   0.61569096E-07   -73.769
    8   -82.557   0.61561771E-07   -73.953
    9   135.848   0.61686663E-07   -75.002
   10   -85.742   0.62568162E-07   -75.571
   11  -110.718   0.62581513E-07   -78.082
   12   -91.434   0.62562108E-07   -78.203
   13   -58.288   0.10648111E-06   -78.747
   14   -77.517   0.62576703E-07   -79.692
   15   -41.680   0.62544451E-07   -79.927
   16   120.266   0.63968017E-07   -80.335
   17   -73.632   0.62570315E-07   -80.371
   18    56.277   0.10179053E-06   -82.086
   19   108.013   0.10706883E-06   -82.539
   20    65.467   0.10178995E-06   -83.109
   21   170.334   0.63941599E-07   -85.592
   22  -156.462   0.10239361E-06   -85.871
   23  -152.014   0.63046862E-07   -86.020
   24  -122.751   0.63166290E-07   -86.074
   25   131.796   0.63245011E-07   -86.475
   26   -70.844   0.65676090E-07   -86.503
   27   128.942   0.63251264E-07   -86.729
   28   120.887   0.10689475E-06   -87.726
   29   155.033   0.63966709E-07   -88.324
   30   -14.623   0.65659101E-07   -88.649
   31   -74.399   0.63833603E-07   -88.980
   32   -62.609   0.64817421E-07   -90.245
   33   104.067   0.63965729E-07   -90.264
   34   -63.635   0.63838719E-07   -90.398
   35   -68.003   0.60938710E-07   -90.517
   36  -137.686   0.12703228E-06   -90.570
   37   -83.177   0.60950207E-07   -90.600
   38   -79.440   0.12712835E-06   -90.898
   39   -93.459   0.63858884E-07   -90.966
   40  -173.293   0.82270027E-07   -91.372
   41   162.247   0.82423611E-07   -91.454
   42   -61.545   0.63842741E-07   -91.670
   43   160.740   0.82432770E-07   -91.799
   44    71.988   0.12743092E-06   -91.866
   45   175.128   0.82421103E-07   -91.940
   46    85.896   0.12742377E-06   -92.000
   47     7.935   0.16802699E-06   -92.262
   48   141.646   0.12766456E-06   -92.400
   49   -53.852   0.63841014E-07   -92.438
   50   -96.041   0.19781817E-06   -92.471
   51    96.729   0.16809894E-06   -92.513
   52   -42.949   0.16820960E-06   -92.632
   53   175.189   0.82425565E-07   -92.651
   54  -107.508   0.19796957E-06   -92.800
   55  -147.198   0.19814333E-06   -93.046
   56   119.706   0.82883012E-07   -93.229
   57    59.092   0.19854130E-06   -93.631
   58   -64.521   0.12826509E-06   -93.642
   59    48.427   0.19869205E-06   -93.961
   60   -49.511   0.82735887E-07   -94.017
   61   -66.356   0.82745537E-07   -94.032
   62    -5.059   0.16832558E-06   -94.137
   63   -96.407   0.12827448E-06   -94.391
   64   123.108   0.82892157E-07   -94.397
   65   -43.593   0.82735014E-07   -94.404
   66   -57.694   0.64824000E-07   -94.407
   67    57.129   0.82130029E-07   -94.499
   68   129.199   0.16850517E-06   -94.513
   69    39.897   0.61567938E-07   -94.544
   70    47.208   0.61562133E-07   -94.545
   71   -26.822   0.64799472E-07   -94.549
   72   141.878   0.82877406E-07   -94.685
   73   154.242   0.19861565E-06   -94.732
   74   -51.834   0.65700149E-07   -94.815
   75   142.983   0.82884270E-07   -94.965
   76   147.142   0.82877158E-07   -95.075
   77    44.699   0.67740260E-07   -95.257
   78   -91.124   0.19894897E-06   -95.636
   79    54.263   0.82278412E-07   -95.680
   80    45.506   0.82285602E-07   -95.777
   81   -47.358   0.12824871E-06   -95.848
   82    94.080   0.19866114E-06   -95.875
   83  -144.576   0.66169527E-07   -95.943
   84   -30.859   0.19932284E-06   -96.013
   85   156.508   0.82873775E-07   -96.042
   86   -35.788   0.82741074E-07   -96.063
   87  -105.988   0.20992496E-06   -96.122
   88   -49.489   0.19933742E-06   -96.131
   89   160.197   0.82874806E-07   -96.165
   90   -62.900   0.12828052E-06   -96.296
   91   103.783   0.16894903E-06   -96.336
   92   -40.430   0.82748542E-07   -96.366
   93    49.251   0.19912467E-06   -96.404
   94    79.917   0.16896801E-06   -96.479
   95   163.102   0.12906875E-06   -96.650
   96     5.242   0.62587631E-07   -96.702
   97  -161.646   0.12904052E-06   -96.797
   98    13.025   0.19943811E-06   -97.018
   99   -21.750   0.65700029E-07   -97.209
  100   120.819   0.14327325E-06   -97.593
  101  -103.597   0.16955146E-06   -97.760
  102   105.638   0.83618893E-07   -97.760
  103    79.287   0.83639812E-07   -97.927
  104   161.428   0.20016671E-06   -98.041
  105  -174.405   0.69474716E-07   -98.600
  106    25.490   0.62568489E-07   -98.624
  107   -21.463   0.62605743E-07   -98.628
  108   106.823   0.16896090E-06   -98.732
  109  -144.636   0.19984638E-06   -98.812
  110   -25.968   0.62604322E-07   -98.949
  111  -103.168   0.83502186E-07   -99.057
  112    47.772   0.84378222E-07   -99.377
  113   -31.117   0.84722643E-07   -99.422
  114  -112.457   0.13000898E-06   -99.426
  115   116.477   0.83617309E-07   -99.457
  116    44.098   0.14362267E-06   -99.691
  117    46.715   0.14362062E-06   -99.706
  118    38.698   0.14363114E-06   -99.842
  119   113.963   0.14337051E-06   -99.911
    19    126
    1    43.449   0.64027972E-07   -69.496
    2   -19.571   0.64219542E-07   -70.271
    3   -33.922   0.64230868E-07   -70.311
    4   102.121   0.64835739E-07   -70.984
    5   -12.578   0.64219257E-07   -71.002
    6   -26.822   0.64230562E-07   -71.004
    7   153.342   0.64802883E-07   -74.035
    8   127.406   0.64823702E-07   -74.358
    9    -5.369   0.64933509E-07   -75.199
   10  -141.300   0.65751095E-07   -76.016
   11   163.433   0.65788420E-07   -78.302
   12  -179.644   0.65774984E-07   -78.432
   13   150.468   0.10317257E-06   -78.481
   14  -166.133   0.65781748E-07   -80.181
   15    79.461   0.67120560E-07   -80.200
   16  -142.697   0.65763324E-07   -80.333
   17   147.849   0.67084876E-07   -80.781
   18    78.604   0.67148747E-07   -82.250
   19   -53.596   0.10376852E-06   -82.272
   20   140.274   0.66228019E-07   -84.767
   21    75.264   0.66421279E-07   -85.477
   22    81.706   0.66416106E-07   -85.513
   23  -128.220   0.67009815E-07   -86.187
   24   -37.269   0.10359170E-06   -87.459
   25   -95.134   0.66977741E-07   -87.541
   26  -105.655   0.66991653E-07   -88.504
   27   -82.523   0.66980981E-07   -88.946
   28   -90.316   0.66987170E-07   -88.947
   29    17.309   0.68768330E-07   -89.013
   30     5.505   0.67894803E-07   -89.197
   31    96.487   0.67103471E-07   -89.243
   32  -178.011   0.64029095E-07   -90.187
   33    47.678   0.12374231E-06   -90.371
   34   101.473   0.12384190E-06   -90.699
   35   110.057   0.85604782E-07   -90.892
   36   111.290   0.64221460E-07   -90.921
   37   118.554   0.64219222E-07   -90.943
   38   106.071   0.64229127E-07   -90.944
   39   101.745   0.64232012E-07   -91.026
   40   -73.318   0.66986921E-07   -91.045
   41    48.249   0.85514998E-07   -91.171
   42    30.330   0.85667459E-07   -91.291
   43    41.673   0.85658272E-07   -91.395
   44   125.657   0.10418209E-06   -91.415
   45   124.097   0.64220409E-07   -91.711
   46   109.804   0.64231749E-07   -91.713
   47  -109.785   0.12415065E-06   -91.729
   48  -128.611   0.64838538E-07   -91.763
   49  -100.344   0.12414301E-06   -91.801
   50    27.100   0.85670287E-07   -91.948
   51  -137.166   0.16471357E-06   -92.098
   52    38.112   0.85665562E-07   -92.146
   53   -51.642   0.12438940E-06   -92.200
   54   127.023   0.19449827E-06   -92.330
   55   -50.655   0.16478734E-06   -92.349
   56   174.543   0.16489790E-06   -92.438
   57   111.067   0.19465324E-06   -92.659
   58    69.727   0.19482830E-06   -92.905
   59    27.024   0.86095774E-07   -93.028
   60    20.015   0.86101238E-07   -93.089
   61     3.539   0.67906718E-07   -93.350
   62   -27.305   0.67931204E-07   -93.352
   63    81.748   0.12500614E-06   -93.448
   64   -77.033   0.19522076E-06   -93.489
   65   -50.681   0.16520980E-06   -93.558
   66    96.723   0.68719856E-07   -93.733
   67   -92.925   0.19537941E-06   -93.734
   68   -91.965   0.19537491E-06   -93.820
   69  -154.880   0.16501977E-06   -93.902
   70  -155.380   0.16501632E-06   -93.973
   71    18.931   0.86106041E-07   -94.036
   72  -159.744   0.85962313E-07   -94.042
   73   -14.325   0.86840771E-07   -94.059
   74    28.862   0.86102027E-07   -94.091
   75    48.233   0.12501683E-06   -94.203
   76  -160.196   0.85966420E-07   -94.245
   77  -173.770   0.85973646E-07   -94.286
   78    58.928   0.12501219E-06   -94.343
   79   -87.735   0.85380108E-07   -94.345
   80   -27.788   0.16520119E-06   -94.349
   81    40.071   0.86097153E-07   -94.524
   82   -68.609   0.69222310E-07   -94.597
   83   -77.164   0.64804333E-07   -94.702
   84   -88.690   0.64812845E-07   -94.926
   85   -48.342   0.65755998E-07   -94.933
   86    31.793   0.86107633E-07   -94.952
   87   126.404   0.19563346E-06   -95.494
   88   -82.101   0.85521755E-07   -95.529
   89   -93.059   0.85530687E-07   -95.627
   90    99.618   0.12498921E-06   -95.671
   91   -59.100   0.19535413E-06   -95.739
   92   178.644   0.19601372E-06   -95.874
   93   -94.277   0.86193715E-07   -95.935
   94   161.934   0.19602678E-06   -95.990
   95    81.353   0.20663343E-06   -96.007
   96   -56.373   0.16565164E-06   -96.149
   97    44.723   0.86105352E-07   -96.309
   98   -88.819   0.16567336E-06   -96.322
   99   -98.942   0.19581346E-06   -96.422
  100   -79.719   0.12583263E-06   -96.654
  101  -158.506   0.19614566E-06   -96.882
  102   -19.957   0.65751010E-07   -96.893
  103    12.253   0.69188353E-07   -97.040
  104  -179.359   0.19601832E-06   -97.062
  105    33.367   0.86811326E-07   -97.441
  106   -63.439   0.71346889E-07   -97.587
  107    83.279   0.16626466E-06   -97.740
  108   -90.203   0.14658765E-06   -97.815
  109  -114.436   0.70715700E-07   -98.115
  110   -56.361   0.16566590E-06   -98.549
  111    -3.090   0.19466509E-06   -98.580
  112   -71.312   0.10318264E-06   -98.820
  113    71.236   0.19653217E-06   -98.867
  114   -28.969   0.65754570E-07   -98.941
  115   -63.026   0.65781592E-07   -98.941
  116    -3.640   0.87836028E-07   -99.086
  117   -83.339   0.65793337E-07   -99.126
  118   169.991   0.86713754E-07   -99.134
  119    17.914   0.86834348E-07   -99.244
  120   -37.411   0.12680657E-06   -99.320
  121  -173.512   0.19686763E-06   -99.350
  122   -25.505   0.66733840E-07   -99.422
  123  -179.053   0.14693401E-06   -99.506
  124  -161.807   0.14692475E-06   -99.782
  125  -159.820   0.14692320E-06   -99.797
  126   -73.395   0.19585731E-06   -99.881
    20    112
    1  -155.616   0.67328813E-07   -69.915
    2   150.366   0.67513241E-07   -70.688
    3   139.607   0.67521782E-07   -70.689
    4   -40.050   0.68091516E-07   -71.329
    5   160.987   0.67510079E-07   -71.417
    6   148.197   0.67520233E-07   -71.419
    7    -3.660   0.68070172E-07   -74.211
    8   107.347   0.68982281E-07   -76.300
    9   -14.656   0.99875052E-07   -78.212
   10    98.667   0.70248426E-07   -80.408
   11    94.528   0.70270133E-07   -80.899
   12   124.223   0.10048453E-06   -82.003
   13   134.105   0.10048640E-06   -83.912
   14    59.608   0.69423379E-07   -84.114
   15   103.297   0.69531382E-07   -84.162
   16     4.873   0.69604667E-07   -84.441
   17     5.741   0.69607857E-07   -84.787
   18  -141.697   0.70156631E-07   -86.550
   19  -131.923   0.70138505E-07   -86.563
   20  -130.652   0.70142818E-07   -87.681
   21  -120.963   0.70138952E-07   -87.814
   22    66.182   0.70259290E-07   -88.294
   23     8.466   0.71023742E-07   -88.347
   24  -122.519   0.70144047E-07   -88.389
   25  -128.490   0.70156517E-07   -88.962
   26   -14.540   0.67327925E-07   -90.604
   27  -131.834   0.88923372E-07   -90.799
   28   -98.274   0.88766448E-07   -90.991
   29   -41.372   0.10088608E-06   -91.145
   30   -21.627   0.88852147E-07   -91.155
   31   -71.054   0.67509035E-07   -91.332
   32   -67.949   0.67510094E-07   -91.358
   33   -79.265   0.67519075E-07   -91.359
   34   -81.940   0.67520929E-07   -91.400
   35   -96.597   0.88907058E-07   -91.525
   36  -134.930   0.88929966E-07   -91.540
   37  -131.072   0.89358068E-07   -91.799
   38    80.228   0.16140203E-06   -91.861
   39   168.086   0.16147746E-06   -91.917
   40    98.069   0.68083843E-07   -92.117
   41   -59.356   0.67508857E-07   -92.123
   42   -72.075   0.67518954E-07   -92.124
   43   -12.991   0.19118083E-06   -92.187
   44    25.224   0.16158783E-06   -92.269
   45   -34.115   0.19133988E-06   -92.517
   46   -77.344   0.19151646E-06   -92.763
   47  -109.541   0.89339210E-07   -93.031
   48    41.463   0.16171643E-06   -93.063
   49   108.302   0.12112656E-06   -93.279
   50   169.193   0.16190036E-06   -93.299
   51   144.151   0.19190237E-06   -93.346
   52   156.683   0.71814668E-07   -93.489
   53   126.815   0.19206222E-06   -93.552
   54   128.235   0.19205721E-06   -93.715
   55    55.106   0.16171026E-06   -93.734
   56    48.528   0.16171163E-06   -93.809
   57    64.272   0.72248199E-07   -93.889
   58    50.738   0.16171799E-06   -93.897
   59   -83.793   0.90031193E-07   -93.917
   60  -160.168   0.12175767E-06   -94.074
   61    70.639   0.89204150E-07   -94.132
   62  -159.928   0.12175732E-06   -94.150
   63   -83.418   0.89326221E-07   -94.154
   64    60.722   0.89212115E-07   -94.265
   65   -83.787   0.89330427E-07   -94.278
   66   -26.822   0.19232563E-06   -94.346
   67   -86.550   0.89336481E-07   -94.350
   68   121.839   0.88638430E-07   -94.440
   69   -86.874   0.89332239E-07   -95.011
   70   -75.984   0.89327592E-07   -95.186
   71    81.103   0.89202850E-07   -95.190
   72   121.368   0.68068339E-07   -95.263
   73   -19.623   0.19232080E-06   -95.352
   74  -152.569   0.68978814E-07   -95.466
   75   105.354   0.68080475E-07   -95.487
   76   137.007   0.19205564E-06   -95.607
   77    83.781   0.68090657E-07   -95.608
   78   133.281   0.88775465E-07   -95.626
   79   123.859   0.88782976E-07   -95.640
   80    18.153   0.19271251E-06   -95.739
   81     8.593   0.19271990E-06   -95.849
   82   133.119   0.16236227E-06   -96.061
   83   112.558   0.16237475E-06   -96.139
   84   118.702   0.16237375E-06   -96.215
   85  -117.921   0.16298708E-06   -96.259
   86   103.975   0.16238160E-06   -96.286
   87    79.853   0.19252870E-06   -96.296
   88    27.622   0.19285483E-06   -96.893
   89    29.979   0.19270932E-06   -96.923
   90  -176.951   0.74290767E-07   -97.153
   91  -122.960   0.68969371E-07   -97.344
   92  -115.050   0.19324736E-06   -97.466
   93    59.732   0.14988896E-06   -97.863
   94    41.907   0.73734633E-07   -98.014
   95  -140.978   0.19134596E-06   -98.434
   96   130.138   0.99879905E-07   -98.546
   97  -136.411   0.16300277E-06   -98.562
   98    82.041   0.89914572E-07   -98.690
   99  -101.718   0.19324087E-06   -98.735
  100   -31.136   0.90992870E-07   -98.918
  101   -45.342   0.90019476E-07   -98.985
  102   -72.481   0.90041056E-07   -99.019
  103     4.223   0.19358370E-06   -99.215
  104   168.153   0.69022903E-07   -99.349
  105   171.608   0.73051453E-07   -99.666
  106    -7.144   0.15022616E-06   -99.680
  107  -172.235   0.19358237E-06   -99.688
  108    -4.019   0.15022371E-06   -99.695
  109   123.656   0.19255801E-06   -99.788
  110  -131.838   0.19247470E-06   -99.949
  111    -2.982   0.15022727E-06   -99.961
  112   119.739   0.19256571E-06   -99.998
    21    110
    1    -2.091   0.70635537E-07   -70.320
    2   161.814   0.71359878E-07   -71.726
    3   -35.852   0.70809158E-07   -71.819
    4   -47.649   0.70818523E-07   -71.820
    5   178.395   0.71354165E-07   -74.496
    6   155.834   0.96596885E-07   -77.947
    7   -96.779   0.97231364E-07   -81.746
    8    38.017   0.73455155E-07   -82.653
    9   -46.205   0.97200939E-07   -83.645
   10   -34.061   0.72632972E-07   -83.777
   11   -78.260   0.72809840E-07   -84.414
   12   -64.547   0.72804092E-07   -85.320
   13   173.629   0.73317061E-07   -86.243
   14  -174.018   0.73317516E-07   -86.321
   15   -13.508   0.91014670E-07   -86.383
   16    25.717   0.90458101E-07   -86.992
   17    35.842   0.90592074E-07   -87.461
   18    25.648   0.90600089E-07   -87.503
   19  -174.745   0.73320678E-07   -87.935
   20    38.397   0.90593780E-07   -88.032
   21    28.153   0.90601951E-07   -88.048
   22  -179.513   0.73328273E-07   -88.092
   23   174.921   0.73332664E-07   -88.170
   24     3.032   0.74157640E-07   -89.133
   25    -6.630   0.91722228E-07   -89.479
   26   107.637   0.92023754E-07   -90.835
   27   126.443   0.97610041E-07   -90.879
   28   134.118   0.70631238E-07   -91.262
   29   111.346   0.92162864E-07   -91.306
   30   -68.047   0.15809114E-06   -91.691
   31    18.535   0.15816758E-06   -91.748
   32    92.820   0.70807282E-07   -91.772
   33   111.443   0.92166225E-07   -91.774
   34   129.747   0.92575696E-07   -91.806
   35    81.213   0.70813279E-07   -91.975
   36   124.049   0.92156895E-07   -92.026
   37  -156.854   0.18786643E-06   -92.045
   38    74.468   0.70818096E-07   -92.057
   39  -129.557   0.15828211E-06   -92.100
   40    88.053   0.70804404E-07   -92.119
   41  -176.054   0.18802390E-06   -92.411
   42    76.021   0.70822558E-07   -92.520
   43    92.271   0.70813314E-07   -92.538
   44   130.597   0.18820857E-06   -92.620
   45    99.765   0.70803829E-07   -92.694
   46    40.970   0.92681361E-07   -92.711
   47   -44.293   0.71336217E-07   -92.741
   48  -111.318   0.15840911E-06   -92.893
   49     9.849   0.18858420E-06   -93.074
   50     9.211   0.15859875E-06   -93.130
   51   158.780   0.74955381E-07   -93.275
   52    -9.538   0.18874179E-06   -93.443
   53   125.849   0.92576819E-07   -93.527
   54  -100.600   0.15840526E-06   -93.565
   55  -162.218   0.93228415E-07   -93.636
   56  -114.971   0.15841282E-06   -93.647
   57   -98.704   0.15840803E-06   -93.725
   58   146.355   0.92564463E-07   -93.770
   59   143.479   0.92570623E-07   -93.851
   60  -175.418   0.18901500E-06   -94.200
   61   153.107   0.92566147E-07   -94.782
   62    19.569   0.15860562E-06   -94.995
   63  -169.431   0.18901505E-06   -95.205
   64  -170.004   0.18901157E-06   -95.209
   65  -145.772   0.18942194E-06   -95.246
   66   160.634   0.92564377E-07   -95.250
   67    29.098   0.92655434E-07   -95.439
   68   -43.152   0.18877004E-06   -95.485
   69  -144.691   0.18941680E-06   -95.576
   70  -157.562   0.18942340E-06   -95.611
   71   -41.539   0.71340487E-07   -95.636
   72  -141.048   0.18941370E-06   -95.688
   73   -55.456   0.71351252E-07   -95.752
   74   -55.101   0.15908309E-06   -95.899
   75   -36.377   0.15906822E-06   -95.899
   76   -63.361   0.71350293E-07   -95.961
   77   -43.290   0.15907374E-06   -96.051
   78   -70.048   0.15909114E-06   -96.124
   79    36.969   0.15972130E-06   -96.127
   80   -86.604   0.18923197E-06   -96.313
   81    26.597   0.76178154E-07   -96.331
   82   -17.890   0.77300157E-07   -96.383
   83  -156.497   0.18957238E-06   -96.760
   84    88.097   0.18994328E-06   -97.322
   85   103.237   0.72200471E-07   -97.457
   86  -156.411   0.15319908E-06   -97.877
   87   -49.537   0.96593929E-07   -98.273
   88    77.418   0.18802977E-06   -98.288
   89    52.307   0.15971014E-06   -98.401
   90  -150.257   0.93237517E-07   -98.541
   91    58.794   0.18997061E-06   -98.617
   92   168.702   0.94810758E-07   -98.790
   93  -102.642   0.94642466E-07   -98.835
   94  -174.225   0.93260503E-07   -98.857
   95   -78.394   0.76099234E-07   -99.038
   96   162.501   0.19031523E-06   -99.086
   97   -72.556   0.18923676E-06   -99.173
   98   -19.851   0.18910562E-06   -99.538
   99    19.508   0.19028732E-06   -99.549
  100    98.154   0.77766586E-07   -99.627
  101   -53.971   0.18927041E-06   -99.665
  102  -153.331   0.73097226E-07   -99.712
  103   -25.212   0.18911425E-06   -99.734
  104    51.933   0.18918600E-06   -99.827
  105   154.924   0.15352610E-06   -99.854
  106   157.521   0.15352407E-06   -99.870
  107   -37.630   0.18926197E-06   -99.902
  108    72.106   0.18917950E-06   -99.946
  109    73.064   0.18917868E-06   -99.983
  110    73.907   0.18917801E-06   -99.984
    22     78
    1    90.643   0.93949474E-07   -83.397
    2   148.356   0.94308739E-07   -84.470
    3    99.264   0.76529062E-07   -86.526
    4   157.127   0.94307815E-07   -86.670
    5   169.724   0.93772378E-07   -87.295
    6  -174.369   0.93901768E-07   -87.763
    7   174.887   0.93910216E-07   -87.805
    8  -175.107   0.93905847E-07   -88.249
    9  -179.881   0.93909911E-07   -88.349
   10  -115.803   0.94373732E-07   -90.638
   11   -52.626   0.95286047E-07   -90.698
   12   -43.182   0.95420603E-07   -91.170
   13   -86.245   0.95637461E-07   -91.210
   14     4.102   0.95810513E-07   -91.673
   15   148.047   0.15478105E-06   -91.678
   16  -127.229   0.15485895E-06   -91.734
   17   -36.338   0.95422436E-07   -91.740
   18   -76.430   0.73937507E-07   -91.830
   19   -34.342   0.95417704E-07   -91.892
   20    68.334   0.96801436E-07   -91.927
   21    79.098   0.15497791E-06   -92.086
   22  -108.039   0.74102886E-07   -92.501
   23  -120.768   0.74112741E-07   -92.542
   24   -42.203   0.95890286E-07   -92.761
   25    98.859   0.15510371E-06   -92.880
   26  -129.528   0.18526625E-06   -92.926
   27  -118.609   0.74116208E-07   -93.085
   28  -150.902   0.15530139E-06   -93.193
   29  -100.753   0.74102147E-07   -93.261
   30  -111.938   0.74111021E-07   -93.262
   31  -152.387   0.18542660E-06   -93.295
   32    96.397   0.15510605E-06   -93.397
   33   141.358   0.74609900E-07   -93.426
   34   105.722   0.15510292E-06   -93.552
   35     6.864   0.95810179E-07   -93.654
   36    10.401   0.95811309E-07   -93.757
   37    10.724   0.95814912E-07   -93.817
   38    31.383   0.18570800E-06   -94.052
   39   -87.663   0.96493125E-07   -94.148
   40  -167.773   0.11441008E-06   -94.309
   41   109.108   0.15580214E-06   -94.713
   42   119.666   0.15579376E-06   -94.722
   43    83.886   0.96456517E-07   -94.799
   44  -146.096   0.15530853E-06   -94.821
   45    23.261   0.95808190E-07   -94.965
   46    66.764   0.18611419E-06   -94.972
   47    23.534   0.95811842E-07   -95.027
   48    44.803   0.18570218E-06   -95.057
   49    54.146   0.18612042E-06   -95.103
   50    68.871   0.18610424E-06   -95.543
   51   119.917   0.15580132E-06   -95.735
   52   135.121   0.15578925E-06   -95.748
   53   138.166   0.74619209E-07   -96.206
   54   133.270   0.74623095E-07   -96.206
   55    19.448   0.18628963E-06   -96.770
   56    90.747   0.98348373E-07   -97.120
   57   -57.060   0.18628309E-06   -97.154
   58   -84.348   0.18665158E-06   -97.182
   59    -7.982   0.15650986E-06   -98.052
   60   -68.993   0.18471739E-06   -98.141
   61    11.933   0.98238196E-07   -98.224
   62  -140.522   0.15643460E-06   -98.252
   63   -62.004   0.76039065E-07   -98.477
   64  -132.174   0.97809149E-07   -98.518
   65   -18.214   0.98261857E-07   -98.604
   66   146.388   0.97975160E-07   -99.100
   67  -160.310   0.18700146E-06   -99.413
   68   176.986   0.18581092E-06   -99.598
   69   177.288   0.18581068E-06   -99.599
   70   -14.937   0.75442870E-07   -99.730
   71   -88.487   0.18587839E-06   -99.809
   72   -85.135   0.18587566E-06   -99.847
   73   -84.908   0.18587549E-06   -99.847
   74   141.566   0.18598134E-06   -99.926
   75  -153.767   0.97362054E-07   -99.960
   76   155.341   0.18597034E-06   -99.963
   77   130.628   0.18776181E-06   -99.982
   78   147.840   0.18597622E-06   -99.999
    23     86
    1   -52.461   0.78937973E-07   -78.599
    2   -72.597   0.79100296E-07   -79.900
    3  -134.916   0.79572160E-07   -79.979
    4   -62.488   0.79092487E-07   -79.987
    5  -146.131   0.79580140E-07   -80.791
    6  -116.679   0.79564686E-07   -82.245
    7    72.449   0.79089126E-07   -82.248
    8    48.414   0.79250043E-07   -82.847
    9    63.342   0.79242902E-07   -83.631
   10   -18.969   0.79729517E-07   -84.399
   11   -41.695   0.97602431E-07   -84.749
   12   156.376   0.80342303E-07   -85.571
   13    11.868   0.79712912E-07   -85.974
   14   151.773   0.80913424E-07   -86.428
   15   156.127   0.80913928E-07   -86.457
   16   -48.623   0.97609572E-07   -87.065
   17   -49.689   0.97089377E-07   -87.589
   18   -29.030   0.97214993E-07   -88.057
   19   -40.248   0.97223811E-07   -88.099
   20   -26.615   0.97216571E-07   -88.541
   21   -32.851   0.97221793E-07   -88.643
   22   -78.058   0.80493010E-07   -89.225
   23   -63.969   0.81053244E-07   -90.239
   24   144.288   0.98554409E-07   -90.793
   25   166.351   0.98678960E-07   -91.259
   26   158.166   0.98685440E-07   -91.266
   27     0.762   0.81471747E-07   -91.493
   28    -4.529   0.15147357E-06   -91.503
   29    78.304   0.15155298E-06   -91.560
   30  -135.370   0.99060124E-07   -91.767
   31    41.707   0.81439474E-07   -91.793
   32    76.464   0.93652126E-07   -91.824
   33   -82.159   0.15167733E-06   -91.912
   34    64.590   0.77246419E-07   -92.357
   35   -60.504   0.15180161E-06   -92.706
   36  -161.250   0.99127675E-07   -92.840
   37    94.213   0.18195018E-06   -92.893
   38   164.735   0.99150441E-07   -92.937
   39    42.690   0.77404323E-07   -92.986
   40    44.759   0.15200325E-06   -93.019
   41    30.612   0.77413659E-07   -93.027
   42    66.925   0.18211406E-06   -93.262
   43   -57.895   0.15180420E-06   -93.380
   44   -34.863   0.77896878E-07   -93.612
   45    35.336   0.77414839E-07   -93.613
   46    49.099   0.77403982E-07   -93.699
   47    43.296   0.77412558E-07   -93.745
   48  -130.848   0.99062333E-07   -93.895
   49  -135.826   0.99070220E-07   -94.009
   50   167.622   0.99719088E-07   -94.400
   51   -72.283   0.15251753E-06   -94.546
   52   -61.346   0.15250885E-06   -94.565
   53    -5.161   0.82284025E-07   -94.566
   54   -32.764   0.99688215E-07   -94.769
   55   -93.055   0.18281246E-06   -94.825
   56   112.352   0.19449203E-06   -94.836
   57  -105.339   0.18239277E-06   -94.909
   58  -124.344   0.99068195E-07   -95.217
   59   -89.228   0.18280114E-06   -95.401
   60  -111.701   0.18281878E-06   -95.507
   61   -98.091   0.82137966E-07   -95.572
   62   -62.797   0.15251780E-06   -95.719
   63     3.901   0.83820680E-07   -96.998
   64   103.299   0.18301296E-06   -97.023
   65    76.347   0.18338118E-06   -97.055
   66    11.740   0.95268220E-07   -97.065
   67   172.989   0.19501555E-06   -97.887
   68   138.229   0.18141009E-06   -97.995
   69  -108.058   0.95190558E-07   -98.088
   70   134.670   0.15982135E-06   -98.289
   71     6.921   0.95099054E-07   -98.446
   72  -169.437   0.10098171E-06   -98.569
   73  -168.439   0.79262463E-07   -98.868
   74    43.253   0.10026060E-06   -98.941
   75    29.354   0.18371185E-06   -99.313
   76     9.957   0.18251491E-06   -99.465
   77     9.721   0.18251509E-06   -99.465
   78   100.836   0.18258528E-06   -99.677
   79   107.210   0.18258015E-06   -99.713
   80   123.146   0.10056693E-06   -99.805
   81   -15.984   0.18267774E-06   -99.829
   82   -16.106   0.18267782E-06   -99.830
   83    20.018   0.15317370E-06   -99.862
   84   -20.030   0.18268088E-06   -99.867
   85    25.770   0.18242937E-06   -99.868
   86    16.883   0.18243630E-06   -99.944
    24     84
    1  -178.671   0.82177003E-07   -78.718
    2   179.120   0.82325101E-07   -80.021
    3   169.519   0.82332726E-07   -80.021
    4    90.316   0.82805073E-07   -80.578
    5   131.685   0.82784226E-07   -80.892
    6   131.657   0.82784013E-07   -81.010
    7   138.865   0.82782385E-07   -82.061
    8   -34.677   0.82317001E-07   -82.493
    9   -54.730   0.82474763E-07   -83.093
   10    52.545   0.83549054E-07   -83.330
   11   -41.156   0.82468695E-07   -83.878
   12   -84.249   0.82924181E-07   -84.624
   13   115.400   0.10090632E-06   -85.027
   14    96.054   0.83529059E-07   -85.460
   15   -73.511   0.82923528E-07   -86.224
   16   132.795   0.84071338E-07   -86.359
   17   120.005   0.84077541E-07   -86.526
   18   116.127   0.10091168E-06   -87.122
   19    87.662   0.10040894E-06   -87.876
   20    17.862   0.10197817E-06   -88.489
   21   107.877   0.10053068E-06   -88.524
   22    98.000   0.10053844E-06   -88.566
   23   117.321   0.10053090E-06   -88.826
   24   110.220   0.10053682E-06   -88.928
   25  -128.538   0.83675928E-07   -89.426
   26   -80.100   0.84208921E-07   -90.191
   27  -134.522   0.10509591E-06   -90.353
   28   -30.292   0.10183582E-06   -91.046
   29  -164.206   0.14817172E-06   -91.331
   30    -9.799   0.10196167E-06   -91.483
   31    -4.962   0.10195778E-06   -91.512
   32    49.123   0.84576236E-07   -91.576
   33   -90.836   0.14825578E-06   -91.659
   34    39.658   0.84583867E-07   -91.767
   35    66.318   0.10232863E-06   -92.019
   36   131.764   0.14850617E-06   -92.534
   37   -46.219   0.17863307E-06   -92.739
   38  -131.950   0.14871479E-06   -92.923
   39  -151.584   0.80557314E-07   -92.993
   40   -78.075   0.17880056E-06   -93.109
   41    51.433   0.10238322E-06   -93.167
   42   127.649   0.14851409E-06   -93.212
   43    54.916   0.17797352E-06   -93.298
   44   149.171   0.17804113E-06   -93.548
   45  -175.931   0.80717165E-07   -93.622
   46    21.832   0.17814200E-06   -93.665
   47  -170.921   0.80709661E-07   -93.807
   48  -170.242   0.80717335E-07   -94.247
   49  -158.982   0.80708460E-07   -94.334
   50  -169.045   0.80716447E-07   -94.335
   51   132.383   0.81181440E-07   -94.412
   52    36.651   0.85393850E-07   -94.436
   53    31.796   0.10241026E-06   -94.698
   54   111.211   0.17951186E-06   -94.788
   55   111.065   0.17908253E-06   -94.872
   56  -103.029   0.19780583E-06   -94.973
   57   -70.875   0.85254491E-07   -95.203
   58   138.407   0.81176559E-07   -95.222
   59   -15.713   0.10338417E-06   -95.305
   60   117.396   0.17949867E-06   -95.357
   61    87.064   0.17951817E-06   -95.359
   62   100.710   0.12239288E-06   -95.897
   63   102.872   0.12238739E-06   -96.166
   64  -117.483   0.17975961E-06   -96.902
   65  -120.784   0.12270571E-06   -97.372
   66    -4.531   0.10379937E-06   -97.936
   67   -35.754   0.19832406E-06   -98.023
   68   -26.511   0.86458151E-07   -98.522
   69   116.343   0.10418360E-06   -98.626
   70    38.918   0.12358680E-06   -98.910
   71    85.039   0.82489343E-07   -99.014
   72   140.669   0.86872703E-07   -99.235
   73  -143.755   0.18042503E-06   -99.272
   74    24.854   0.10627550E-06   -99.285
   75   -39.893   0.10346517E-06   -99.432
   76   -73.028   0.17929463E-06   -99.585
   77   -73.853   0.17929528E-06   -99.589
   78    38.753   0.12357542E-06   -99.653
   79  -154.458   0.17922132E-06   -99.719
   80  -154.275   0.17922116E-06   -99.720
   81  -149.305   0.17913975E-06   -99.734
   82  -153.928   0.17914329E-06   -99.810
   83   -66.792   0.17929423E-06   -99.931
   84   -58.417   0.17928753E-06   -99.968
    25     76
    1    35.131   0.85435886E-07   -78.994
    2    30.987   0.85577391E-07   -79.977
    3    39.172   0.85578826E-07   -80.211
    4   -24.177   0.86030632E-07   -80.519
    5    12.406   0.86009770E-07   -80.810
    6    14.409   0.86012101E-07   -80.975
    7   -14.471   0.86042562E-07   -81.883
    8    25.559   0.86010992E-07   -82.109
    9    24.782   0.86015788E-07   -82.327
   10  -178.160   0.85573731E-07   -82.775
   11   178.564   0.85718241E-07   -83.337
   12     6.422   0.86724469E-07   -83.450
   13   175.799   0.85724871E-07   -84.076
   14  -144.072   0.93137423E-07   -84.656
   15     6.780   0.86734758E-07   -85.476
   16    76.159   0.87251138E-07   -86.235
   17    63.019   0.87257490E-07   -86.307
   18  -142.417   0.10373010E-06   -88.369
   19  -110.995   0.10384724E-06   -88.800
   20  -121.327   0.10385536E-06   -88.842
   21  -134.644   0.10523777E-06   -88.974
   22  -102.377   0.10384813E-06   -89.103
   23  -115.342   0.10385416E-06   -89.334
   24   -31.789   0.10421080E-06   -90.007
   25  -145.554   0.87403727E-07   -90.165
   26   -86.193   0.10191469E-06   -90.172
   27    15.141   0.87737845E-07   -91.357
   28    51.223   0.94663775E-07   -92.062
   29  -105.374   0.88401372E-07   -92.253
   30   122.180   0.10548609E-06   -92.546
   31   169.655   0.17531887E-06   -92.586
   32   132.528   0.17549057E-06   -92.955
   33   -84.322   0.17465545E-06   -93.140
   34     8.466   0.17472424E-06   -93.391
   35  -113.425   0.10565692E-06   -93.421
   36  -122.711   0.17482814E-06   -93.508
   37   -10.592   0.83870226E-07   -93.559
   38    67.440   0.17725384E-06   -93.628
   39    54.280   0.10649441E-06   -94.004
   40   -16.875   0.84015973E-07   -94.145
   41   -28.472   0.84024947E-07   -94.187
   42    23.040   0.88547658E-07   -94.349
   43   -57.301   0.17621703E-06   -94.638
   44   -16.318   0.84023810E-07   -94.675
   45   -43.315   0.17577648E-06   -94.718
   46  -160.291   0.85413525E-07   -94.808
   47   -10.430   0.84015326E-07   -94.811
   48   -20.399   0.84023235E-07   -94.812
   49   -78.655   0.10564077E-06   -94.939
   50    37.909   0.20112255E-06   -95.111
   51   -82.003   0.17622378E-06   -95.212
   52   -48.689   0.17620171E-06   -95.323
   53   151.276   0.11906388E-06   -95.666
   54   -46.973   0.84462783E-07   -95.782
   55   105.378   0.17793421E-06   -95.834
   56  -140.831   0.11915224E-06   -96.026
   57  -164.514   0.11917091E-06   -96.106
   58   -50.017   0.85749996E-07   -96.210
   59  -159.755   0.84835733E-07   -96.221
   60   -78.978   0.84496577E-07   -96.747
   61    -3.381   0.11946968E-06   -97.229
   62    94.817   0.89834373E-07   -97.673
   63   -54.885   0.17622071E-06   -97.831
   64   138.034   0.17678400E-06   -98.053
   65    93.507   0.10690033E-06   -98.280
   66    93.739   0.10690030E-06   -98.461
   67    45.913   0.11972287E-06   -98.831
   68    69.728   0.10309702E-06   -99.115
   69    26.189   0.17714730E-06   -99.126
   70   -38.567   0.85727962E-07   -99.332
   71    48.072   0.17584513E-06   -99.460
   72    48.646   0.17584453E-06   -99.536
   73   111.808   0.17600962E-06   -99.800
   74    37.259   0.17593078E-06   -99.913
   75    37.539   0.17593055E-06   -99.914
   76  -179.125   0.17595957E-06   -99.931
    26     73
    1  -117.397   0.88683734E-07   -78.803
    2  -106.332   0.88821103E-07   -80.023
    3  -114.983   0.88827967E-07   -80.023
    4  -112.405   0.89247585E-07   -80.943
    5  -121.101   0.89258450E-07   -81.162
    6    21.488   0.88820471E-07   -81.767
    7  -112.732   0.89255273E-07   -81.924
    8  -100.812   0.89245916E-07   -82.037
    9   -98.478   0.89244175E-07   -82.118
   10    28.431   0.88956931E-07   -82.290
   11    21.301   0.88966978E-07   -83.071
   12   -55.147   0.89730193E-07   -84.106
   13   -77.506   0.89936300E-07   -84.835
   14    25.978   0.89388394E-07   -84.869
   15   -96.125   0.89951115E-07   -85.257
   16     6.510   0.90441112E-07   -86.014
   17    -8.028   0.90448616E-07   -86.083
   18   130.275   0.90578375E-07   -86.907
   19    -8.155   0.10705212E-06   -88.638
   20    27.304   0.10716605E-06   -89.069
   21    16.569   0.10717449E-06   -89.111
   22    56.157   0.10851510E-06   -89.124
   23    29.631   0.10716741E-06   -89.501
   24    24.146   0.10717203E-06   -89.602
   25   118.027   0.10752061E-06   -90.199
   26   -27.326   0.91693622E-07   -90.468
   27   -65.668   0.90936695E-07   -91.284
   28  -156.926   0.10828103E-06   -91.844
   29  -118.641   0.91550490E-07   -91.920
   30    20.887   0.17200838E-06   -92.432
   31   -21.723   0.10874317E-06   -92.759
   32  -113.332   0.10839191E-06   -92.783
   33   -22.387   0.17218494E-06   -92.802
   34  -122.830   0.10839972E-06   -92.885
   35   132.936   0.17134016E-06   -92.982
   36  -135.971   0.17141029E-06   -93.233
   37    88.414   0.17151773E-06   -93.350
   38   127.948   0.87184908E-07   -94.044
   39   -52.188   0.10972175E-06   -94.074
   40   119.955   0.87333305E-07   -94.107
   41   -70.510   0.10973196E-06   -94.145
   42   -32.558   0.10875273E-06   -94.383
   43   -12.570   0.10874123E-06   -94.431
   44   -94.580   0.91545765E-07   -94.492
   45   118.817   0.87332914E-07   -94.630
   46   123.513   0.92925539E-07   -94.661
   47   122.907   0.87325816E-07   -94.672
   48   156.031   0.17247554E-06   -94.685
   49   123.569   0.10890869E-06   -94.989
   50   131.385   0.87335152E-07   -95.004
   51    17.661   0.91685791E-07   -95.152
   52   127.313   0.17291917E-06   -95.169
   53   140.831   0.17290844E-06   -95.181
   54   134.658   0.87324750E-07   -95.207
   55   175.857   0.20444163E-06   -95.248
   56   125.654   0.87331955E-07   -95.296
   57   120.269   0.87755119E-07   -96.183
   58    35.484   0.88105409E-07   -96.698
   59   116.139   0.87766338E-07   -97.227
   60   141.605   0.17292190E-06   -97.678
   61   -39.648   0.17349645E-06   -97.915
   62    11.233   0.11010833E-06   -98.237
   63   -16.619   0.11013075E-06   -98.635
   64   -96.465   0.93077681E-07   -99.139
   65   170.378   0.92901026E-07   -99.157
   66  -132.042   0.17255937E-06   -99.404
   67  -170.692   0.88972442E-07   -99.686
   68   -69.225   0.17272467E-06   -99.712
   69  -136.513   0.17264011E-06   -99.776
   70  -136.779   0.17264033E-06   -99.777
   71     6.594   0.17266932E-06   -99.793
   72  -128.095   0.93079663E-07   -99.824
   73   162.031   0.17282659E-06   -99.862
    27     77
    1    99.381   0.90506305E-07   -74.464
    2   109.156   0.90640569E-07   -74.960
    3   112.052   0.90642025E-07   -75.532
    4   101.542   0.90650360E-07   -75.533
    5   114.492   0.91062326E-07   -76.507
    6    52.461   0.91396480E-07   -76.991
    7   118.385   0.91066518E-07   -77.641
    8    81.666   0.91946198E-07   -78.848
    9  -111.317   0.92235886E-07   -79.885
   10    99.400   0.92078082E-07   -79.984
   11    89.536   0.92086111E-07   -80.070
   12   112.246   0.92489870E-07   -80.912
   13    95.715   0.92501971E-07   -81.759
   14   110.286   0.92498617E-07   -81.850
   15   123.293   0.92488413E-07   -81.966
   16  -114.128   0.92070962E-07   -82.007
   17   125.946   0.92486417E-07   -82.051
   18   127.919   0.92488882E-07   -82.095
   19  -101.415   0.92202903E-07   -82.493
   20  -112.688   0.92216176E-07   -83.312
   21  -163.471   0.92959432E-07   -84.073
   22  -141.922   0.92941924E-07   -84.330
   23  -177.958   0.93154839E-07   -85.056
   24   -79.163   0.92614698E-07   -85.091
   25   130.946   0.93333000E-07   -85.819
   26   -93.217   0.93650748E-07   -85.867
   27   -81.322   0.92619437E-07   -85.948
   28   -68.819   0.92613348E-07   -86.010
   29   -80.293   0.93644672E-07   -86.042
   30    72.824   0.93766829E-07   -87.128
   31    17.595   0.94687337E-07   -88.164
   32   124.193   0.11037565E-06   -88.900
   33  -121.443   0.11179910E-06   -89.269
   34   163.243   0.11048674E-06   -89.331
   35   155.665   0.11049274E-06   -89.338
   36   166.908   0.11048703E-06   -89.762
   37   160.947   0.11049202E-06   -89.864
   38   -92.269   0.11083036E-06   -90.457
   39   -16.554   0.94828181E-07   -90.491
   40  -145.538   0.94706408E-07   -91.899
   41    27.905   0.11156290E-06   -92.067
   42   -14.208   0.16802838E-06   -92.823
   43   171.146   0.11201866E-06   -92.983
   44    75.124   0.11167091E-06   -93.006
   45    67.507   0.11167700E-06   -93.021
   46   -68.003   0.11219255E-06   -93.064
   47    74.901   0.16810007E-06   -93.073
   48   -65.903   0.16821163E-06   -93.191
   49   175.440   0.11296530E-06   -94.107
   50   157.027   0.11297550E-06   -94.117
   51   -95.644   0.90501160E-07   -94.442
   52   -92.995   0.90641095E-07   -94.504
   53    -7.725   0.16917693E-06   -94.533
   54  -177.154   0.11201035E-06   -94.595
   55  -169.433   0.11200859E-06   -94.650
   56   -88.333   0.90636320E-07   -94.987
   57   -99.418   0.90644910E-07   -95.027
   58   -48.657   0.20776267E-06   -95.384
   59   -82.178   0.90635609E-07   -95.606
   60   -86.856   0.90643475E-07   -95.612
   61   -80.840   0.91053508E-07   -96.579
   62   141.639   0.96042456E-07   -96.639
   63   -51.113   0.96168371E-07   -96.698
   64  -144.643   0.91387626E-07   -97.010
   65   -29.965   0.96128886E-07   -97.208
   66   -30.378   0.16962983E-06   -97.526
   67   -69.713   0.91052620E-07   -97.622
   68   119.122   0.17022758E-06   -97.794
   69  -111.946   0.11334430E-06   -98.009
   70    56.333   0.96254873E-07   -98.254
   71  -152.224   0.96005714E-07   -98.993
   72    76.949   0.16926546E-06   -99.333
   73    67.913   0.16926280E-06   -99.358
   74    53.310   0.16935101E-06   -99.908
   75    53.137   0.16935115E-06   -99.908
   76  -164.420   0.16938087E-06   -99.925
   77    45.142   0.92226330E-07   -99.957
    28     91
    1  -116.683   0.93820645E-07   -74.767
    2  -104.913   0.93953950E-07   -74.823
    3  -101.199   0.93950369E-07   -75.262
    4  -114.987   0.93961184E-07   -75.340
    5   -96.896   0.93950710E-07   -75.833
    6  -106.403   0.93958256E-07   -75.834
    7   -74.589   0.94355251E-07   -76.793
    8  -120.696   0.94676757E-07   -77.279
    9   -62.938   0.94353283E-07   -77.921
   10   -80.352   0.95213501E-07   -79.030
   11   135.771   0.95892652E-07   -80.070
   12   -57.654   0.95341441E-07   -80.167
   13   -65.818   0.95347922E-07   -80.167
   14   -63.543   0.95755837E-07   -80.645
   15   -31.760   0.95738805E-07   -80.888
   16   128.858   0.95485561E-07   -81.799
   17    84.800   0.95333874E-07   -81.886
   18   -22.444   0.95738486E-07   -81.900
   19   -18.726   0.95735658E-07   -81.992
   20   -14.028   0.95736112E-07   -82.145
   21   -18.591   0.95743985E-07   -82.308
   22   102.928   0.95461523E-07   -82.372
   23    86.484   0.95478903E-07   -83.193
   24   140.457   0.95858034E-07   -83.717
   25    93.113   0.96184365E-07   -84.319
   26    92.243   0.96180813E-07   -84.481
   27    69.604   0.96378571E-07   -84.822
   28   149.179   0.95858113E-07   -85.128
   29    50.113   0.96540155E-07   -85.735
   30   177.234   0.96860489E-07   -85.780
   31  -167.575   0.96852602E-07   -85.871
   32   161.548   0.95855256E-07   -86.179
   33   178.522   0.96705485E-07   -86.190
   34   -32.315   0.96981587E-07   -86.787
   35   -13.860   0.97855477E-07   -88.215
   36    -0.181   0.96971419E-07   -88.741
   37    92.710   0.97924136E-07   -89.042
   38  -105.071   0.11370046E-06   -89.156
   39    53.626   0.11508892E-06   -89.409
   40   -58.334   0.11380865E-06   -90.016
   41   -64.482   0.11381380E-06   -90.119
   42    46.171   0.97823865E-07   -90.233
   43   -56.384   0.97999205E-07   -90.273
   44   -61.491   0.11496765E-06   -90.584
   45    50.166   0.11414589E-06   -90.710
   46   -14.579   0.11507266E-06   -90.943
   47   -21.159   0.11507781E-06   -90.986
   48   161.939   0.97882364E-07   -91.449
   49   163.238   0.97892929E-07   -92.006
   50   -91.379   0.98040395E-07   -92.042
   51  -162.030   0.11485213E-06   -92.247
   52  -166.988   0.16472106E-06   -92.664
   53   -77.958   0.16479557E-06   -92.718
   54   144.577   0.16490166E-06   -93.068
   55  -112.332   0.11495795E-06   -93.101
   56  -118.718   0.11496329E-06   -93.202
   57   118.769   0.11547289E-06   -93.317
   58     0.789   0.11529144E-06   -93.865
   59   129.883   0.99174997E-07   -93.928
   60    17.419   0.11622470E-06   -94.020
   61    35.974   0.11621439E-06   -94.069
   62     1.089   0.11529720E-06   -94.596
   63    14.922   0.11528635E-06   -94.713
   64    16.037   0.11528559E-06   -94.815
   65    39.615   0.93818848E-07   -95.083
   66    51.140   0.93951755E-07   -95.144
   67    74.337   0.99366368E-07   -95.394
   68    84.778   0.21108535E-06   -95.519
   69    53.943   0.93948650E-07   -95.587
   70    40.212   0.93959130E-07   -95.668
   71   -82.572   0.98522321E-07   -95.762
   72    33.281   0.99394278E-07   -95.855
   73    63.176   0.93948820E-07   -95.911
   74    49.076   0.93956395E-07   -96.157
   75   -15.938   0.99256887E-07   -96.806
   76    79.696   0.94351549E-07   -97.138
   77    30.097   0.94673986E-07   -97.647
   78   123.730   0.11658141E-06   -98.108
   79    92.451   0.94348970E-07   -98.261
   80    66.228   0.97750949E-07   -98.320
   81  -147.801   0.99140301E-07   -98.346
   82    23.991   0.97649639E-07   -99.097
   83   -90.010   0.16596940E-06   -99.182
   84   -97.537   0.16597048E-06   -99.247
   85    -1.425   0.97807643E-07   -99.297
   86    36.295   0.97781864E-07   -99.610
   87    14.382   0.97799195E-07   -99.650
   88     8.071   0.16610112E-06   -99.791
   89  -179.603   0.10060543E-06   -99.984
   90  -120.763   0.16606488E-06   -99.988
   91  -120.587   0.16606474E-06   -99.988
    29     92
    1    23.592   0.97137885E-07   -75.061
    2    43.333   0.97264866E-07   -75.115
    3    44.021   0.97263687E-07   -75.556
    4    49.417   0.97263161E-07   -76.126
    5    40.677   0.97270096E-07   -76.127
    6    93.990   0.97650293E-07   -76.925
    7    84.250   0.97657761E-07   -77.077
    8    57.200   0.97964275E-07   -77.488
    9   106.816   0.98485152E-07   -78.954
   10   -37.337   0.98749574E-07   -79.877
   11   135.180   0.98608375E-07   -80.003
   12   126.413   0.98615558E-07   -80.092
   13     1.568   0.99137836E-07   -80.123
   14   163.964   0.98310416E-07   -80.843
   15  -175.902   0.98992011E-07   -80.865
   16   176.561   0.99002044E-07   -81.136
   17   -63.056   0.99477461E-07   -81.321
   18   -61.563   0.99760932E-07   -81.892
   19  -172.752   0.98992324E-07   -81.930
   20  -164.362   0.98989794E-07   -81.948
   21   -78.470   0.98602371E-07   -81.988
   22  -165.447   0.98994960E-07   -82.239
   23  -170.023   0.99002776E-07   -82.403
   24   -56.812   0.98727213E-07   -82.474
   25    -2.041   0.99106039E-07   -83.631
   26     1.257   0.99107424E-07   -83.818
   27   -39.060   0.99420461E-07   -84.065
   28   -41.088   0.99421676E-07   -84.297
   29   -51.330   0.99613203E-07   -84.717
   30    81.072   0.10007550E-06   -85.500
   31    70.544   0.10007962E-06   -85.688
   32   -29.682   0.99428959E-07   -85.739
   33    12.817   0.99108220E-07   -86.098
   34    92.822   0.99916356E-07   -86.393
   35  -113.784   0.10018983E-06   -86.591
   36   139.339   0.99735978E-07   -86.750
   37    88.407   0.10106866E-06   -87.607
   38    77.922   0.10107467E-06   -89.058
   39   -94.366   0.10118280E-06   -89.132
   40     7.753   0.10099735E-06   -90.235
   41   130.582   0.11824378E-06   -90.783
   42  -178.279   0.11834544E-06   -91.142
   43   172.935   0.11835234E-06   -91.185
   44   -89.614   0.10117386E-06   -91.835
   45   121.532   0.10106889E-06   -92.129
   46     4.673   0.11814396E-06   -92.359
   47    59.053   0.11824606E-06   -93.213
   48   -17.996   0.10370918E-06   -93.240
   49     4.549   0.10369572E-06   -93.302
   50    50.780   0.11825289E-06   -93.314
   51   179.896   0.11856909E-06   -93.734
   52  -109.818   0.11946848E-06   -93.962
   53  -128.331   0.11947888E-06   -94.122
   54    55.050   0.11957874E-06   -94.474
   55  -168.043   0.11856552E-06   -94.642
   56  -167.365   0.11856931E-06   -94.707
   57  -161.591   0.11856486E-06   -94.824
   58   177.949   0.97137629E-07   -95.379
   59  -113.698   0.10168576E-06   -95.412
   60  -163.101   0.97264646E-07   -95.438
   61   -87.695   0.10223322E-06   -95.503
   62   112.698   0.10233840E-06   -95.600
   63    -2.095   0.11867843E-06   -95.767
   64   132.111   0.10232304E-06   -95.808
   65  -162.712   0.97263452E-07   -95.882
   66    -0.852   0.11867718E-06   -95.925
   67    -0.828   0.10372482E-06   -95.925
   68  -157.219   0.97262976E-07   -96.451
   69  -165.954   0.97269911E-07   -96.452
   70   -44.930   0.10241889E-06   -96.560
   71  -115.684   0.97650265E-07   -97.266
   72  -126.116   0.97657747E-07   -97.428
   73   110.114   0.10249815E-06   -97.548
   74   123.888   0.10248721E-06   -97.558
   75  -155.425   0.97964552E-07   -97.855
   76   -28.975   0.11983654E-06   -97.997
   77  -169.481   0.10121452E-06   -98.128
   78    69.431   0.10308711E-06   -98.134
   79  -168.088   0.10229071E-06   -98.323
   80   -37.578   0.10097163E-06   -98.328
   81   -48.066   0.10084185E-06   -98.335
   82    46.510   0.10090945E-06   -98.376
   83   -88.235   0.10101052E-06   -98.998
   84    91.284   0.16268265E-06   -99.036
   85    69.615   0.16269496E-06   -99.114
   86   -45.102   0.10098567E-06   -99.156
   87   -79.734   0.12040650E-06   -99.264
   88   108.826   0.12030105E-06   -99.323
   89   -25.039   0.10096924E-06   -99.357
   90   -15.634   0.10096178E-06   -99.358
   91    52.820   0.16278425E-06   -99.852
   92    35.020   0.10522216E-06   -99.922
    30    107
    1   160.905   0.10045748E-06   -75.348
    2  -172.902   0.10057934E-06   -75.399
    3  -178.987   0.10057931E-06   -76.018
    4  -168.083   0.10057864E-06   -76.412
    5  -176.229   0.10058510E-06   -76.412
    6  -108.664   0.10095399E-06   -77.203
    7  -120.792   0.10125676E-06   -78.974
    8   -66.434   0.10176137E-06   -79.194
    9   -58.285   0.10209226E-06   -80.040
   10   170.409   0.10201327E-06   -80.147
   11   -33.207   0.10188074E-06   -80.245
   12  -151.970   0.10239417E-06   -80.305
   13   -43.660   0.10188926E-06   -80.334
   14    26.483   0.10225170E-06   -80.970
   15    21.422   0.10156640E-06   -81.085
   16  -165.363   0.10270173E-06   -81.431
   17    28.169   0.10225695E-06   -81.898
   18    40.577   0.10225159E-06   -82.168
   19   107.396   0.10188343E-06   -82.241
   20   135.624   0.10200312E-06   -82.689
   21   166.725   0.10300687E-06   -83.374
   22  -159.348   0.10237401E-06   -83.702
   23  -150.759   0.10236693E-06   -83.872
   24    91.396   0.10269333E-06   -83.888
   25  -155.053   0.10299130E-06   -83.980
   26  -174.806   0.10267119E-06   -84.208
   27  -168.703   0.10266621E-06   -84.306
   28   175.340   0.10285348E-06   -84.756
   29   153.451   0.10286657E-06   -84.796
   30   -24.706   0.10329804E-06   -85.527
   31   -38.528   0.10330474E-06   -85.663
   32    70.063   0.10292541E-06   -86.135
   33   -19.843   0.10314517E-06   -86.258
   34  -140.394   0.10237267E-06   -86.341
   35    17.086   0.10297162E-06   -86.674
   36   140.380   0.10341668E-06   -86.827
   37    94.036   0.10420708E-06   -87.195
   38    18.359   0.10426292E-06   -87.497
   39    -3.898   0.10427834E-06   -88.879
   40  -167.878   0.10438396E-06   -89.198
   41    24.126   0.10425597E-06   -89.214
   42   -54.815   0.10419015E-06   -90.069
   43   -53.205   0.12153251E-06   -90.992
   44    -9.200   0.12163974E-06   -91.394
   45    41.823   0.10426699E-06   -91.728
   46  -174.278   0.10438391E-06   -92.028
   47   168.446   0.12143809E-06   -92.401
   48    82.203   0.10564982E-06   -92.660
   49  -133.302   0.12153713E-06   -93.255
   50  -147.735   0.12154428E-06   -93.306
   51    68.018   0.10678382E-06   -93.311
   52    48.944   0.10680335E-06   -93.479
   53    -0.791   0.12185535E-06   -93.947
   54    98.809   0.12272713E-06   -94.058
   55    81.939   0.12274057E-06   -94.327
   56   -70.335   0.12282111E-06   -94.665
   57    15.319   0.12184844E-06   -94.748
   58    15.434   0.12184849E-06   -94.854
   59    56.602   0.12163372E-06   -94.915
   60    13.835   0.12185420E-06   -95.043
   61   110.487   0.10547868E-06   -95.476
   62   -46.326   0.10045849E-06   -95.666
   63   -77.347   0.10536368E-06   -95.691
   64   -21.469   0.10058081E-06   -95.724
   65   -96.792   0.10560360E-06   -95.755
   66   -79.659   0.10689333E-06   -95.854
   67    99.158   0.10548775E-06   -95.902
   68  -156.781   0.12194405E-06   -95.960
   69  -166.625   0.12195160E-06   -96.122
   70   -22.583   0.10058081E-06   -96.169
   71   -65.089   0.10046128E-06   -96.302
   72   -39.675   0.10058314E-06   -96.361
   73   -56.341   0.15907631E-06   -96.577
   74   -72.301   0.15908898E-06   -96.578
   75    30.065   0.15972293E-06   -96.683
   76   -16.485   0.10057985E-06   -96.738
   77   -24.693   0.10058637E-06   -96.738
   78   -39.445   0.10058229E-06   -96.765
   79  -115.064   0.14235428E-06   -97.233
   80  -132.136   0.10404358E-06   -97.435
   81   -43.539   0.14243986E-06   -97.522
   82    36.767   0.10095785E-06   -97.549
   83   -49.174   0.14244426E-06   -97.559
   84    69.207   0.10567347E-06   -97.791
   85  -107.943   0.10416642E-06   -97.911
   86   -46.824   0.14244496E-06   -97.928
   87   168.427   0.10544750E-06   -97.952
   88   -38.559   0.10411588E-06   -98.016
   89   -76.082   0.10691576E-06   -98.067
   90  -169.074   0.12309059E-06   -98.174
   91    16.265   0.10096200E-06   -98.207
   92   166.957   0.10437608E-06   -98.216
   93   151.726   0.14271187E-06   -98.439
   94  -160.310   0.10420663E-06   -98.582
   95  -103.827   0.15940893E-06   -98.898
   96   157.140   0.12364721E-06   -98.933
   97  -103.611   0.10417052E-06   -99.000
   98   -20.402   0.10452329E-06   -99.222
   99    -7.827   0.12353222E-06   -99.246
  100   173.294   0.12363429E-06   -99.278
  101    23.084   0.10126045E-06   -99.335
  102  -106.545   0.10417678E-06   -99.514
  103   -30.515   0.10481626E-06   -99.688
  104   -91.104   0.10674729E-06   -99.736
  105    79.342   0.10623098E-06   -99.899
  106   136.725   0.14314966E-06   -99.969
  107     4.353   0.10126320E-06   -99.990
    31     95
    1   -68.925   0.10377845E-06   -75.840
    2   -37.159   0.10389589E-06   -75.892
    3   -37.961   0.10389596E-06   -76.295
    4   -28.698   0.10389659E-06   -76.689
    5   -36.378   0.10390268E-06   -76.690
    6    41.993   0.10425897E-06   -77.541
    7   110.098   0.10504129E-06   -79.253
    8    41.556   0.10455219E-06   -79.465
    9   163.970   0.10534444E-06   -80.254
   10   147.293   0.10515751E-06   -80.304
   11    56.245   0.10565326E-06   -80.376
   12   144.396   0.10516411E-06   -80.425
   13     2.576   0.10528523E-06   -80.521
   14    48.887   0.10537524E-06   -80.825
   15   158.855   0.10535490E-06   -81.128
   16  -133.642   0.10552164E-06   -81.208
   17  -156.394   0.10485039E-06   -81.343
   18   -21.817   0.10601255E-06   -81.521
   19    58.353   0.10595275E-06   -81.679
   20  -122.796   0.10551533E-06   -82.008
   21   174.703   0.10555879E-06   -82.736
   22    54.733   0.10623886E-06   -83.476
   23    72.410   0.10624365E-06   -83.873
   24   -35.770   0.10593710E-06   -84.091
   25    29.106   0.10611240E-06   -84.982
   26    59.722   0.10625152E-06   -85.247
   27  -157.844   0.10653797E-06   -85.570
   28  -141.844   0.10652956E-06   -85.636
   29   -48.005   0.10616197E-06   -86.329
   30  -146.203   0.10638831E-06   -86.480
   31   -88.597   0.10747783E-06   -87.320
   32  -125.822   0.10750948E-06   -88.503
   33   -79.113   0.10747235E-06   -88.645
   34  -168.447   0.10741928E-06   -89.685
   35   -59.083   0.10746867E-06   -90.638
   36   -20.187   0.10885121E-06   -92.034
   37   124.930   0.15479146E-06   -92.301
   38  -149.799   0.15486896E-06   -92.356
   39    66.677   0.10880102E-06   -92.473
   40   -30.314   0.12473436E-06   -92.645
   41    28.623   0.12483262E-06   -93.414
   42    24.312   0.12483630E-06   -93.515
   43  -176.593   0.15531391E-06   -93.807
   44   -53.456   0.12599081E-06   -94.119
   45   179.451   0.12513667E-06   -94.119
   46    81.879   0.15511395E-06   -94.171
   47  -101.494   0.10739473E-06   -94.334
   48   -66.995   0.12600159E-06   -94.390
   49   174.724   0.12482631E-06   -94.768
   50    86.379   0.10863624E-06   -94.854
   51  -168.584   0.12513291E-06   -94.992
   52  -173.898   0.12514160E-06   -95.068
   53    72.996   0.10864692E-06   -95.071
   54  -129.667   0.12492447E-06   -95.086
   55  -140.112   0.12493261E-06   -95.163
   56   -85.560   0.11004589E-06   -95.392
   57   -95.758   0.11004099E-06   -95.409
   58    87.242   0.10378105E-06   -95.945
   59   116.866   0.10389959E-06   -96.002
   60    29.787   0.12522456E-06   -96.164
   61    25.046   0.12522818E-06   -96.256
   62   118.374   0.15579485E-06   -96.560
   63    73.491   0.10377987E-06   -96.577
   64   104.504   0.10389729E-06   -96.636
   65   120.649   0.15579309E-06   -96.714
   66   121.349   0.10389903E-06   -97.016
   67   113.553   0.10390522E-06   -97.016
   68   103.595   0.10389734E-06   -97.040
   69    99.498   0.10390121E-06   -97.098
   70   133.791   0.10725719E-06   -97.196
   71    13.113   0.14568113E-06   -97.431
   72   156.325   0.10738135E-06   -97.674
   73    87.343   0.14576456E-06   -97.719
   74    81.278   0.14576931E-06   -97.756
   75   164.254   0.12608163E-06   -97.761
   76   145.564   0.15578085E-06   -97.840
   77   -27.987   0.11000756E-06   -97.869
   78   -50.809   0.11003425E-06   -97.964
   79    41.859   0.10969075E-06   -98.025
   80    84.445   0.14576935E-06   -98.126
   81   178.125   0.10426286E-06   -98.317
   82    72.817   0.10759365E-06   -98.380
   83   -77.746   0.14603698E-06   -98.562
   84  -106.385   0.10772651E-06   -98.567
   85   -64.263   0.14602614E-06   -98.631
   86  -148.331   0.15643312E-06   -98.907
   87    34.243   0.12688766E-06   -98.949
   88  -154.945   0.11137499E-06   -99.119
   89    49.331   0.12687563E-06   -99.123
   90  -144.775   0.12677963E-06   -99.294
   91    47.438   0.12687710E-06   -99.299
   92   -87.765   0.10988376E-06   -99.317
   93   152.304   0.10861246E-06   -99.494
   94  -175.176   0.10456066E-06   -99.610
   95   158.111   0.10851441E-06   -99.653
    32     95
    1    65.299   0.10710050E-06   -76.110
    2   101.823   0.10721416E-06   -76.160
    3   100.250   0.10721484E-06   -76.563
    4   108.110   0.10721658E-06   -76.959
    5   100.800   0.10722238E-06   -76.959
    6  -168.634   0.10756912E-06   -77.727
    7  -113.185   0.10828111E-06   -79.061
    8   -71.676   0.10832411E-06   -79.300
    9  -156.188   0.10785178E-06   -79.494
   10   -32.078   0.10843842E-06   -80.352
   11   -38.014   0.10844313E-06   -80.352
   12  -102.146   0.10891761E-06   -80.380
   13  -175.049   0.10856965E-06   -80.436
   14    -5.071   0.10861670E-06   -80.599
   15  -139.874   0.10865934E-06   -81.025
   16  -109.798   0.10864404E-06   -81.041
   17    -9.857   0.10863153E-06   -81.227
   18     6.258   0.10814987E-06   -81.603
   19   100.613   0.10843633E-06   -81.652
   20   -88.597   0.10920840E-06   -81.732
   21   136.051   0.10855030E-06   -82.099
   22  -153.638   0.10856256E-06   -82.228
   23    75.235   0.10878673E-06   -82.241
   24  -142.363   0.10891230E-06   -83.192
   25  -118.595   0.10889316E-06   -83.345
   26  -100.327   0.10950934E-06   -83.376
   27   -68.582   0.10920404E-06   -83.762
   28  -113.623   0.10917413E-06   -83.831
   29   -75.295   0.10948045E-06   -83.878
   30  -177.181   0.10919216E-06   -84.167
   31    83.405   0.10977502E-06   -85.245
   32    92.016   0.10976820E-06   -85.389
   33    68.724   0.10977811E-06   -85.490
   34   -77.361   0.10950317E-06   -85.511
   35  -128.296   0.10989260E-06   -85.959
   36  -119.660   0.10988539E-06   -86.153
   37   115.712   0.11060846E-06   -87.509
   38  -105.392   0.10988424E-06   -87.729
   39   175.169   0.11069500E-06   -88.540
   40  -163.180   0.11067770E-06   -88.875
   41  -155.243   0.11067139E-06   -88.878
   42    72.058   0.11066172E-06   -89.359
   43   165.818   0.10885731E-06   -91.910
   44   -16.938   0.15147549E-06   -92.127
   45    66.734   0.15155425E-06   -92.182
   46     2.662   0.11197594E-06   -92.250
   47  -102.367   0.15168546E-06   -92.534
   48  -171.211   0.10884560E-06   -92.692
   49   129.639   0.12803598E-06   -92.854
   50  -163.398   0.11190888E-06   -92.901
   51   -90.056   0.15181706E-06   -93.400
   52    10.359   0.11080162E-06   -93.404
   53    31.579   0.15200584E-06   -93.634
   54  -167.682   0.12813149E-06   -93.709
   55  -174.132   0.12813665E-06   -93.724
   56   -71.971   0.15180748E-06   -93.998
   57   139.929   0.12926590E-06   -94.326
   58   152.411   0.11062178E-06   -94.563
   59    62.767   0.11179358E-06   -94.854
   60  -115.424   0.11318978E-06   -94.932
   61   -21.820   0.12812517E-06   -94.977
   62   -76.741   0.11315036E-06   -94.984
   63    26.918   0.11182208E-06   -95.080
   64    -0.383   0.12842786E-06   -95.082
   65    37.158   0.12822065E-06   -95.294
   66    23.412   0.12823141E-06   -95.372
   67  -158.206   0.12851675E-06   -96.298
   68   -62.439   0.15250977E-06   -96.395
   69   -47.216   0.15249773E-06   -96.548
   70  -150.583   0.10710056E-06   -96.846
   71  -114.723   0.10721413E-06   -96.903
   72  -116.560   0.10721492E-06   -97.307
   73  -117.600   0.10721637E-06   -97.364
   74   140.279   0.14900877E-06   -97.625
   75  -140.032   0.11191821E-06   -97.660
   76   -32.602   0.15249368E-06   -97.676
   77  -143.030   0.14909024E-06   -97.913
   78  -149.486   0.14909530E-06   -97.950
   79     0.820   0.12935421E-06   -97.966
   80  -143.669   0.14909298E-06   -98.229
   81  -150.677   0.14909855E-06   -98.230
   82    91.888   0.11279391E-06   -98.251
   83  -145.602   0.14909477E-06   -98.320
   84   -26.570   0.10756855E-06   -98.497
   85    68.993   0.14934909E-06   -98.749
   86     5.383   0.15316826E-06   -98.753
   87    75.003   0.14934419E-06   -98.820
   88  -111.859   0.11448449E-06   -98.850
   89   173.809   0.11121790E-06   -99.046
   90   -71.500   0.11300538E-06   -99.077
   91   -94.383   0.13013261E-06   -99.150
   92    79.930   0.13002109E-06   -99.222
   93   -95.293   0.13013327E-06   -99.326
   94   111.629   0.11328881E-06   -99.439
   95    82.223   0.11180673E-06   -99.723
    33     86
    1  -160.168   0.11042658E-06   -76.159
    2  -121.787   0.11053448E-06   -76.422
    3  -123.887   0.11053559E-06   -76.825
    4   -18.604   0.11087862E-06   -77.985
    5    62.673   0.11156522E-06   -79.480
    6   102.240   0.11161042E-06   -79.542
    7   136.349   0.11172164E-06   -79.550
    8     3.410   0.11115369E-06   -79.752
    9    86.453   0.11218799E-06   -80.535
   10     7.649   0.11185342E-06   -80.575
   11   143.258   0.11172361E-06   -80.594
   12   138.205   0.11172762E-06   -80.595
   13   179.478   0.11189399E-06   -80.870
   14    68.827   0.11192209E-06   -81.159
   15    63.458   0.11192654E-06   -81.238
   16  -172.758   0.11189878E-06   -81.646
   17   -68.430   0.11171335E-06   -81.869
   18   123.990   0.11246826E-06   -81.973
   19   -37.952   0.11183145E-06   -82.202
   20   -31.715   0.11182630E-06   -82.317
   21    26.459   0.11184819E-06   -82.482
   22    79.341   0.11216491E-06   -83.393
   23   115.569   0.11276279E-06   -83.535
   24    85.170   0.11216002E-06   -83.562
   25   121.978   0.11248137E-06   -84.006
   26   111.492   0.11243172E-06   -85.240
   27   -53.476   0.11301790E-06   -85.296
   28   -63.776   0.11302168E-06   -85.463
   29   -49.021   0.11301440E-06   -85.585
   30   157.335   0.11273678E-06   -85.939
   31   124.852   0.11312046E-06   -86.041
   32   113.221   0.11312532E-06   -86.168
   33   107.405   0.11244185E-06   -86.188
   34    16.568   0.11383032E-06   -87.562
   35   141.622   0.11311677E-06   -87.932
   36   103.254   0.11389493E-06   -88.718
   37  -153.694   0.11405114E-06   -88.846
   38    77.183   0.11391114E-06   -89.051
   39     6.634   0.11385650E-06   -89.608
   40    91.710   0.11390858E-06   -90.573
   41   112.478   0.11389509E-06   -90.626
   42  -167.661   0.14816654E-06   -91.958
   43   -86.151   0.14824701E-06   -92.013
   44   -77.378   0.11518269E-06   -92.269
   45    90.363   0.14838965E-06   -92.366
   46   165.410   0.11507681E-06   -92.837
   47    30.852   0.11211380E-06   -92.914
   48   118.013   0.14850906E-06   -93.231
   49  -156.837   0.14873099E-06   -93.403
   50  -132.603   0.14870757E-06   -93.465
   51  -155.516   0.17128892E-06   -93.709
   52   121.118   0.14851138E-06   -93.829
   53   141.236   0.11404431E-06   -94.444
   54   -46.147   0.11501843E-06   -94.582
   55     5.427   0.11497755E-06   -94.801
   56   -39.103   0.11501294E-06   -95.032
   57   117.529   0.14922030E-06   -95.250
   58   -51.389   0.11572291E-06   -96.139
   59   110.811   0.14923361E-06   -96.304
   60  -111.745   0.13331589E-06   -96.854
   61   -72.318   0.11630131E-06   -96.963
   62  -116.811   0.11634550E-06   -97.041
   63   -16.847   0.11042300E-06   -97.107
   64    23.248   0.11053321E-06   -97.163
   65    20.645   0.11053460E-06   -97.568
   66   143.241   0.14921545E-06   -97.582
   67    22.155   0.11053402E-06   -97.623
   68   -93.434   0.15233711E-06   -97.815
   69    61.118   0.11596127E-06   -98.008
   70   -14.495   0.15241680E-06   -98.103
   71   -21.308   0.15242215E-06   -98.140
   72   -13.959   0.15241862E-06   -98.419
   73   -20.518   0.15242382E-06   -98.419
   74   -16.789   0.15242112E-06   -98.510
   75   128.623   0.11087395E-06   -98.749
   76  -150.175   0.15266589E-06   -98.934
   77   -85.791   0.11615549E-06   -98.952
   78  -149.324   0.15266508E-06   -99.007
   79  -178.324   0.14988962E-06   -99.016
   80   -68.112   0.13327717E-06   -99.106
   81   159.079   0.14990751E-06   -99.202
   82  -109.372   0.11381886E-06   -99.531
   83   -98.731   0.11381022E-06   -99.646
   84  -129.230   0.11369632E-06   -99.725
   85   -38.473   0.11659856E-06   -99.932
   86   -63.508   0.11662281E-06   -99.968
    34     84
    1   -31.679   0.11374889E-06   -76.627
    2    11.086   0.11385717E-06   -77.001
    3   119.868   0.11419743E-06   -78.160
    4   -87.743   0.11489970E-06   -79.721
    5   -41.956   0.11500601E-06   -79.770
    6  -126.001   0.11485288E-06   -79.823
    7   155.528   0.11446153E-06   -80.003
    8   -77.214   0.11546074E-06   -80.756
    9   -50.441   0.11501584E-06   -80.775
   10   -45.570   0.11501633E-06   -80.822
   11  -169.159   0.11513661E-06   -80.825
   12     7.013   0.11517373E-06   -81.091
   13  -103.782   0.11520194E-06   -81.374
   14  -112.774   0.11520926E-06   -81.458
   15    13.098   0.11517491E-06   -81.990
   16   106.129   0.11499952E-06   -82.055
   17   144.158   0.11511163E-06   -82.389
   18   143.416   0.11511202E-06   -82.504
   19    -8.798   0.11539778E-06   -82.961
   20   -83.988   0.11543353E-06   -83.578
   21   -82.646   0.11543233E-06   -83.670
   22   -75.085   0.11571164E-06   -83.914
   23    38.165   0.11635667E-06   -85.321
   24   156.570   0.11627093E-06   -85.366
   25   174.238   0.11626132E-06   -85.405
   26   -51.756   0.11570028E-06   -85.425
   27   -43.508   0.11603928E-06   -85.473
   28   158.675   0.11627371E-06   -85.675
   29   164.273   0.11627370E-06   -85.804
   30    11.523   0.11599548E-06   -85.825
   31   -21.560   0.11637124E-06   -86.120
   32    -2.887   0.11636070E-06   -86.164
   33   -44.617   0.11570536E-06   -86.412
   34  -107.633   0.11707207E-06   -87.618
   35     0.182   0.11637188E-06   -88.148
   36    -9.145   0.11711833E-06   -88.459
   37   128.256   0.11725219E-06   -88.804
   38   -89.149   0.11707117E-06   -89.562
   39     3.212   0.11712011E-06   -90.534
   40    -1.811   0.11712580E-06   -90.618
   41  -179.636   0.11722203E-06   -90.815
   42    42.705   0.14486078E-06   -91.796
   43   120.605   0.14494411E-06   -91.851
   44    91.567   0.11827458E-06   -92.769
   45   -35.478   0.14520637E-06   -93.068
   46  -145.908   0.11539694E-06   -93.144
   47    61.171   0.14541486E-06   -93.377
   48   -53.862   0.14522574E-06   -93.669
   49    -6.596   0.17459870E-06   -93.847
   50    -5.188   0.17459818E-06   -93.863
   51  -107.307   0.11820535E-06   -94.461
   52   -72.780   0.11817800E-06   -94.680
   53   -73.763   0.14594779E-06   -94.977
   54   -51.142   0.14592965E-06   -95.086
   55    -7.788   0.11914280E-06   -95.383
   56   -49.475   0.11886425E-06   -96.167
   57  -104.791   0.11946589E-06   -96.531
   58  -107.297   0.11947240E-06   -96.619
   59  -103.947   0.11977775E-06   -97.365
   60   -65.296   0.14595643E-06   -97.421
   61   -70.916   0.11974709E-06   -97.479
   62   111.057   0.11374655E-06   -97.770
   63   155.643   0.11385603E-06   -97.822
   64   159.304   0.11385374E-06   -97.876
   65    32.085   0.15566607E-06   -98.001
   66   154.569   0.11385375E-06   -98.151
   67   113.085   0.15574412E-06   -98.289
   68   105.944   0.15574973E-06   -98.326
   69  -126.763   0.11932258E-06   -98.462
   70   114.518   0.15574523E-06   -98.605
   71   108.333   0.15575013E-06   -98.605
   72    57.602   0.11827867E-06   -98.608
   73   111.028   0.15574825E-06   -98.696
   74   -25.058   0.14662511E-06   -98.863
   75   -44.395   0.13664437E-06   -98.949
   76   -28.010   0.14662741E-06   -99.043
   77   -13.647   0.15598611E-06   -99.117
   78   -16.439   0.15598819E-06   -99.191
   79   150.786   0.13652765E-06   -99.260
   80   109.069   0.11693177E-06   -99.362
   81   -87.064   0.11418450E-06   -99.413
   82   -83.987   0.11446664E-06   -99.674
   83   145.148   0.11704543E-06   -99.690
   84   144.189   0.11704600E-06   -99.805
    35     83
    1    78.929   0.11819156E-06   -79.833
    2   126.459   0.11830092E-06   -79.993
    3    41.535   0.11814365E-06   -80.403
    4   104.265   0.11873649E-06   -80.651
    5   116.662   0.11830736E-06   -80.887
    6    62.691   0.11848953E-06   -81.311
    7    67.850   0.11849429E-06   -81.597
    8   175.554   0.11845878E-06   -81.895
    9   -83.089   0.11828854E-06   -82.183
   10  -175.533   0.11846249E-06   -82.449
   11   -38.493   0.11839544E-06   -82.516
   12   -46.057   0.11840125E-06   -82.632
   13  -173.417   0.11867129E-06   -83.171
   14    -6.232   0.11953395E-06   -83.522
   15    96.685   0.11871061E-06   -83.571
   16   103.795   0.11870906E-06   -83.706
   17   128.978   0.11897826E-06   -84.133
   18    28.359   0.11951549E-06   -85.298
   19   -89.767   0.11959661E-06   -85.355
   20   144.784   0.11896876E-06   -85.434
   21    10.694   0.11952520E-06   -85.468
   22   124.956   0.12031917E-06   -85.670
   23  -156.917   0.11927214E-06   -85.714
   24  -148.154   0.11926514E-06   -85.888
   25  -163.036   0.11962246E-06   -86.005
   26  -144.499   0.11961204E-06   -86.111
   27  -156.829   0.11963117E-06   -87.405
   28  -129.863   0.12035261E-06   -88.316
   29    60.383   0.12044892E-06   -88.972
   30  -107.577   0.12034617E-06   -90.166
   31  -162.065   0.12137646E-06   -90.355
   32  -113.423   0.12035711E-06   -90.858
   33    70.982   0.12044761E-06   -90.874
   34  -120.142   0.14156146E-06   -91.643
   35    43.490   0.12147058E-06   -91.677
   36   -47.183   0.14164871E-06   -91.697
   37   147.823   0.14191816E-06   -92.834
   38   158.467   0.14190958E-06   -92.913
   39  -113.508   0.14212492E-06   -93.221
   40   141.917   0.17790940E-06   -94.001
   41   140.191   0.17791137E-06   -94.017
   42    14.339   0.12017323E-06   -94.097
   43    64.054   0.12027643E-06   -94.138
   44  -157.260   0.14216184E-06   -94.410
   45   167.644   0.12141126E-06   -94.499
   46    72.378   0.14268896E-06   -94.822
   47   125.097   0.14264691E-06   -94.928
   48    47.894   0.12029230E-06   -95.123
   49    71.331   0.13803108E-06   -95.237
   50   141.392   0.13812060E-06   -95.288
   51    79.079   0.14270265E-06   -95.902
   52  -154.659   0.13916275E-06   -96.243
   53   -33.992   0.13839828E-06   -96.426
   54  -146.905   0.12058999E-06   -96.438
   55  -130.411   0.12262494E-06   -96.529
   56   -27.353   0.13839274E-06   -96.572
   57  -166.536   0.12266247E-06   -96.600
   58   145.086   0.14247217E-06   -96.732
   59  -138.322   0.12294343E-06   -97.026
   60   -99.470   0.12290813E-06   -97.082
   61   -98.807   0.12083835E-06   -97.314
   62  -146.517   0.12249973E-06   -97.618
   63  -149.014   0.13916686E-06   -97.812
   64  -117.300   0.11707064E-06   -98.017
   65   -65.729   0.11717520E-06   -98.123
   66   156.928   0.15899556E-06   -98.184
   67   -69.694   0.11717459E-06   -98.397
   68  -120.176   0.15907212E-06   -98.472
   69  -127.618   0.15907796E-06   -98.509
   70   108.272   0.14338049E-06   -98.701
   71  -118.065   0.15907267E-06   -98.787
   72  -123.937   0.15907733E-06   -98.787
   73   137.337   0.14335738E-06   -98.877
   74  -122.029   0.15907607E-06   -98.878
   75  -167.616   0.13988502E-06   -99.075
   76  -122.531   0.12157416E-06   -99.197
   77   -10.149   0.13979388E-06   -99.290
   78   119.648   0.15930890E-06   -99.297
   79   114.242   0.15931305E-06   -99.372
   80  -111.405   0.14330269E-06   -99.487
   81    -1.186   0.12147376E-06   -99.492
   82    57.393   0.11749842E-06   -99.656
   83    83.340   0.11776242E-06   -99.915
    36     86
    1  -117.315   0.12148573E-06   -79.874
    2   -68.016   0.12158924E-06   -79.923
    3  -153.732   0.12144147E-06   -80.623
    4   -80.033   0.12160189E-06   -80.929
    5   -71.627   0.12202339E-06   -81.042
    6  -164.632   0.12144761E-06   -81.282
    7  -121.654   0.12177870E-06   -81.524
    8    -5.094   0.12174500E-06   -82.108
    9    84.402   0.12158010E-06   -82.246
   10   134.715   0.12168245E-06   -82.579
   11  -140.439   0.12278048E-06   -82.633
   12     0.154   0.12175163E-06   -82.668
   13   -12.367   0.12175640E-06   -82.840
   14    -2.117   0.12195542E-06   -83.092
   15     4.119   0.12195896E-06   -83.389
   16   -89.418   0.12200144E-06   -83.614
   17   -75.645   0.12199037E-06   -83.691
   18   -75.243   0.12198991E-06   -83.780
   19  -139.646   0.12278714E-06   -83.872
   20   -43.094   0.12224972E-06   -84.023
   21   -23.557   0.12224103E-06   -85.379
   22   121.735   0.12285327E-06   -85.444
   23  -141.186   0.12278410E-06   -85.510
   24  -126.741   0.12278586E-06   -85.533
   25   104.348   0.12287558E-06   -85.723
   26    67.846   0.12286816E-06   -85.992
   27    52.335   0.12288010E-06   -86.204
   28    86.172   0.12287447E-06   -86.675
   29    93.215   0.12285717E-06   -87.389
   30    79.660   0.12361939E-06   -88.503
   31    91.168   0.12361026E-06   -88.510
   32   -57.165   0.12368123E-06   -88.879
   33   103.606   0.12458993E-06   -90.424
   34   -47.914   0.12468188E-06   -91.481
   35    41.902   0.13828999E-06   -91.550
   36   115.429   0.13837393E-06   -91.874
   37   -34.635   0.12368133E-06   -92.328
   38   -78.450   0.13866918E-06   -92.737
   39   -45.078   0.13864255E-06   -92.816
   40    37.029   0.13886246E-06   -93.201
   41   -73.925   0.18122356E-06   -94.154
   42   -78.353   0.18122768E-06   -94.170
   43   -96.159   0.12340378E-06   -94.233
   44   -47.178   0.12350756E-06   -94.277
   45  -109.110   0.13940422E-06   -94.820
   46   -64.377   0.12352426E-06   -95.262
   47  -120.071   0.14132584E-06   -95.417
   48   -48.937   0.14141168E-06   -95.735
   49    84.528   0.12382674E-06   -95.749
   50  -111.759   0.13942554E-06   -95.805
   51   141.724   0.12584233E-06   -96.160
   52   174.794   0.12580720E-06   -96.249
   53    42.586   0.14243474E-06   -96.277
   54   -59.393   0.14142299E-06   -96.287
   55   147.055   0.13974827E-06   -96.366
   56    24.598   0.14244502E-06   -96.395
   57   104.570   0.12381885E-06   -96.457
   58   -31.435   0.13918370E-06   -96.595
   59   150.275   0.14168060E-06   -96.601
   60   145.546   0.14168410E-06   -96.753
   61  -139.928   0.12607873E-06   -96.877
   62  -156.137   0.12340806E-06   -97.090
   63  -102.962   0.12351185E-06   -97.186
   64  -106.794   0.14011246E-06   -97.271
   65  -105.420   0.12351011E-06   -97.417
   66   -78.828   0.16232552E-06   -98.363
   67    67.393   0.12049811E-06   -98.363
   68   176.398   0.12405540E-06   -98.512
   69    53.977   0.12381030E-06   -98.542
   70     8.596   0.12039546E-06   -98.621
   71     5.819   0.16240068E-06   -98.650
   72    -1.901   0.16240675E-06   -98.687
   73    84.785   0.12407104E-06   -98.873
   74     8.432   0.16240085E-06   -98.965
   75     2.824   0.16240530E-06   -98.965
   76    59.945   0.12049645E-06   -99.001
   77     4.143   0.16240450E-06   -99.057
   78    33.760   0.14314976E-06   -99.067
   79   -76.414   0.12467223E-06   -99.249
   80    54.344   0.12050369E-06   -99.328
   81    72.788   0.14001364E-06   -99.352
   82  -167.002   0.14306123E-06   -99.449
   83  -109.547   0.16263365E-06   -99.474
   84  -116.850   0.16263931E-06   -99.549
   85   109.965   0.13974827E-06   -99.643
   86  -123.555   0.13922218E-06   -99.882
    37     80
    1    43.920   0.12478199E-06   -80.118
    2    92.500   0.12488118E-06   -80.468
    3   111.062   0.12529827E-06   -81.064
    4    47.184   0.12506428E-06   -81.660
    5  -111.020   0.12487394E-06   -82.242
    6   161.489   0.12504137E-06   -82.322
    7   -55.737   0.12497235E-06   -82.574
    8    70.340   0.12603729E-06   -82.814
    9   164.376   0.12504469E-06   -83.053
   10  -175.656   0.12523601E-06   -83.295
   11    98.091   0.12527707E-06   -83.609
   12   104.011   0.12527224E-06   -83.686
   13    99.834   0.12527542E-06   -83.774
   14    82.497   0.12603083E-06   -83.825
   15   154.688   0.12551706E-06   -84.101
   16   149.406   0.12552552E-06   -84.235
   17   -32.783   0.12611454E-06   -85.474
   18    77.467   0.12603911E-06   -85.579
   19   158.420   0.12552518E-06   -85.592
   20    65.575   0.12604858E-06   -85.710
   21   -82.998   0.12613073E-06   -86.194
   22   -54.505   0.12612898E-06   -86.874
   23   -46.870   0.12611120E-06   -87.570
   24   -13.630   0.12682308E-06   -88.387
   25   179.765   0.12691402E-06   -88.743
   26    -8.164   0.12682960E-06   -90.177
   27    11.608   0.12780150E-06   -90.251
   28   -43.571   0.12684743E-06   -90.303
   29  -149.581   0.12790156E-06   -91.492
   30  -164.383   0.12692330E-06   -92.528
   31   143.365   0.12711003E-06   -93.494
   32   121.712   0.12665129E-06   -93.522
   33   169.205   0.12675623E-06   -93.564
   34   137.269   0.20506016E-06   -94.002
   35    66.721   0.18454050E-06   -94.306
   36   176.083   0.12675852E-06   -94.767
   37    47.738   0.12847629E-06   -95.284
   38    37.246   0.14462955E-06   -95.601
   39   114.803   0.14471313E-06   -95.652
   40   -15.048   0.12704849E-06   -95.751
   41   115.387   0.12899282E-06   -96.123
   42    97.552   0.12901610E-06   -96.149
   43  -136.507   0.14571569E-06   -96.434
   44    99.328   0.14472559E-06   -96.470
   45    49.595   0.12728363E-06   -96.497
   46   167.576   0.12789992E-06   -96.515
   47  -145.708   0.14572304E-06   -96.570
   48   -79.771   0.13650387E-06   -96.614
   49    72.371   0.12665129E-06   -96.680
   50   -32.931   0.20576717E-06   -96.746
   51   -15.289   0.12705696E-06   -96.763
   52   -47.949   0.14497672E-06   -96.769
   53   124.092   0.12675623E-06   -96.777
   54   -38.892   0.14497360E-06   -96.782
   55   169.830   0.12925697E-06   -96.835
   56   -49.449   0.14497778E-06   -96.845
   57    99.376   0.13594116E-06   -96.858
   58   128.983   0.12674865E-06   -97.007
   59  -144.972   0.14642922E-06   -97.106
   60   -47.272   0.14498492E-06   -97.465
   61   -54.482   0.13692784E-06   -97.546
   62  -169.396   0.12788627E-06   -97.687
   63   -63.749   0.12704260E-06   -98.131
   64   -15.266   0.12728930E-06   -98.461
   65    44.885   0.16565590E-06   -98.538
   66  -161.058   0.12382229E-06   -98.597
   67   131.154   0.16572979E-06   -98.826
   68   138.643   0.12372081E-06   -98.855
   69   134.127   0.16572966E-06   -99.140
   70   128.744   0.16573394E-06   -99.141
   71   129.630   0.16573348E-06   -99.232
   72  -166.752   0.12381922E-06   -99.234
   73  -148.181   0.13676491E-06   -99.246
   74  -107.470   0.12736034E-06   -99.499
   75  -169.682   0.12382435E-06   -99.561
   76    19.302   0.16595996E-06   -99.649
   77    67.315   0.12867972E-06   -99.703
   78    50.510   0.13594116E-06   -99.782
   79   -60.893   0.12971829E-06   -99.885
   80   142.202   0.12788627E-06   -99.953
    38     71
    1  -157.532   0.12808026E-06   -80.301
    2   -98.761   0.12817583E-06   -80.672
    3   -77.159   0.12858604E-06   -81.246
    4  -141.962   0.12835726E-06   -81.863
    5    51.399   0.12817360E-06   -82.451
    6   110.774   0.12826877E-06   -82.783
    7   -87.047   0.12930505E-06   -83.013
    8    -4.025   0.12852837E-06   -83.504
    9   -84.747   0.12856503E-06   -83.814
   10   -82.960   0.12930070E-06   -83.891
   11   -82.765   0.12856333E-06   -83.894
   12   -31.931   0.12880830E-06   -84.146
   13   -24.798   0.12880237E-06   -84.309
   14   170.194   0.12938203E-06   -85.659
   15   -87.062   0.12931254E-06   -85.780
   16   141.311   0.12940176E-06   -86.934
   17   140.503   0.12939107E-06   -87.773
   18  -149.605   0.13007391E-06   -88.388
   19  -155.403   0.13007852E-06   -88.397
   20    39.823   0.13016795E-06   -88.921
   21  -160.285   0.13008304E-06   -90.346
   22    95.527   0.13113562E-06   -91.484
   23  -105.391   0.13103501E-06   -91.935
   24    64.620   0.13016998E-06   -92.512
   25    78.146   0.13088516E-06   -92.704
   26   -18.239   0.12990115E-06   -93.385
   27    28.273   0.13000241E-06   -93.386
   28    27.152   0.13000779E-06   -93.427
   29    34.967   0.13033890E-06   -93.631
   30   -80.655   0.20837598E-06   -94.134
   31    29.924   0.12955863E-06   -94.772
   32   -43.037   0.14374739E-06   -95.061
   33     6.849   0.13165186E-06   -95.204
   34  -138.068   0.13028493E-06   -95.621
   35  -155.723   0.13030285E-06   -95.754
   36  -173.800   0.14793585E-06   -95.761
   37    55.928   0.13218327E-06   -95.786
   38   -93.050   0.14801688E-06   -95.812
   39    31.421   0.13220735E-06   -95.841
   40    75.312   0.13110787E-06   -95.986
   41    93.935   0.13245543E-06   -96.272
   42    76.976   0.13247349E-06   -96.343
   43   -74.406   0.13052086E-06   -96.369
   44   -67.402   0.12990115E-06   -96.448
   45   -17.779   0.13000779E-06   -96.545
   46    46.369   0.14899912E-06   -96.611
   47    -6.046   0.12999476E-06   -96.775
   48   124.078   0.20907113E-06   -96.876
   49   120.903   0.14827128E-06   -96.947
   50   122.152   0.14827435E-06   -96.965
   51   115.596   0.14827536E-06   -97.023
   52    92.761   0.14966506E-06   -97.267
   53    60.906   0.13112208E-06   -97.312
   54   119.438   0.14827712E-06   -97.627
   55   166.136   0.13028493E-06   -97.821
   56   148.654   0.13030285E-06   -98.124
   57  -130.371   0.13051960E-06   -98.227
   58   163.988   0.13029042E-06   -98.292
   59   168.124   0.16898667E-06   -98.710
   60   114.108   0.13060534E-06   -98.735
   61  -104.102   0.16905935E-06   -98.997
   62   -92.580   0.12704717E-06   -99.083
   63  -100.880   0.16905904E-06   -99.312
   64  -106.073   0.16906316E-06   -99.312
   65  -105.492   0.16906294E-06   -99.404
   66   -35.057   0.12714327E-06   -99.462
   67    37.944   0.13110787E-06   -99.600
   68   -36.163   0.12714695E-06   -99.788
   69   146.583   0.16928752E-06   -99.821
   70     5.663   0.13187152E-06   -99.833
   71    68.206   0.13262300E-06   -99.922
